time,seconds_elapsed,z,y,x
1681158816469335800,0.017335693359375,0.4269330346614122,-0.4245034694269299,0.9199576671287417
1681158816479394600,0.02739453125,0.445150828397274,-0.4496348419435322,0.9435749818205833
1681158816489454800,0.037454833984375,0.5004156195014715,-0.44512101778089996,0.9766219497673213
1681158816499513600,0.047513671875,0.5867991869688034,-0.4182170826338231,0.893522372406721
1681158816509572900,0.05757275390625,0.5565016638606787,-0.31005349890440703,0.7884604079544544
1681158816519631600,0.067631591796875,0.5528858114510774,-0.20141499113962053,0.7477966083284467
1681158816529690600,0.077690673828125,0.5771984149307012,-0.07925240041315555,0.6708413058765232
1681158816539749600,0.08774951171875,0.6254986277192831,-0.016631109066307544,0.5648069892607629
1681158816549808600,0.09780859375,0.7067360644698143,0.003072685443609953,0.5445702569179237
1681158816559867600,0.10786767578125,0.8364934942394494,0.017040712780505417,0.495251551269181
1681158816569926700,0.1179267578125,0.8672697407752274,0.060503130149096244,0.5075798120424151
1681158816579985700,0.127985595703125,0.9324439314752817,0.04908990186154842,0.4902488476110622
1681158816590044700,0.138044677734375,1.0296937608718872,0.014698971959948539,0.4450342162802815
1681158816600103700,0.148103759765625,0.9814595990568399,-0.01541720323190093,0.4720848664216697
1681158816610162700,0.15816259765625,1.0519213747709988,-0.11277955309227108,0.7216920068655163
1681158816620221700,0.1682216796875,1.0269541067749262,-0.27541034780740736,0.8205338546939194
1681158816630281700,0.17828173828125,0.8436147244215011,-0.23803251104950904,0.8173395886972546
1681158816640340500,0.188340576171875,0.7687228573054075,-0.1485315422140062,0.7165453646920621
1681158816650399700,0.198399658203125,0.6926999403327703,-0.04402107416465878,0.756240903807804
1681158816660458500,0.20845849609375,0.37750937080085273,0.07417991945445537,0.8695412659037858
1681158816670517800,0.218517822265625,-0.30935704107284545,0.2838888378173113,0.9411024542272091
1681158816680576500,0.228576416015625,-0.2926508209437132,0.2848253880150616,0.585427314093709
1681158816690635800,0.2386357421875,-0.3681307170808315,0.2706289587497711,0.7020560899600387
1681158816700694500,0.248694580078125,-0.16523498586416244,0.4495537395313382,0.5190823260486126
1681158816710753800,0.25875390625,0.017962942191958427,0.48856750692799683,0.2286708084642887
1681158816720812500,0.2688125,0.027649054425954816,0.5730772433474659,0.146159552385658
1681158816730871600,0.27887158203125,0.08909867164492606,0.6554468989983201,0.1399722420528531
1681158816740930800,0.288930908203125,0.23820962118208408,0.7263187168180942,0.07733662991970777
1681158816750989600,0.298989501953125,0.3944289414197206,0.7922641841515898,-0.03351867711171508
1681158816761048800,0.309048828125,0.5203828872531652,0.8317880930274725,-0.09269216609224677
1681158816771108600,0.319108642578125,0.6220008487313985,0.7762365939363837,-0.015260843626409767
1681158816781167900,0.32916796875,0.6666916388511658,0.6851242443814873,0.015927929233014584
1681158816791226600,0.3392265625,0.5695750804454088,0.6636594315484166,-0.01670797369480133
1681158816801285600,0.34928564453125,0.5670628053635358,0.6903090996734798,-0.054104369022697205
1681158816811344600,0.3593447265625,0.6456476817786693,0.8255730179049074,-0.09355945044606924
1681158816821403600,0.369403564453125,0.8132926513940095,0.9924553325846791,-0.12635288202315567
1681158816831462700,0.379462646484375,0.9253858296573162,0.9055442341119051,-0.2967155861645937
1681158816841521700,0.389521728515625,1.0604524717509747,0.7964651429727673,-0.37301030581593514
1681158816851580700,0.39958056640625,1.1580594440221785,0.6814546159580349,-0.3911705241456628
1681158816861639700,0.4096396484375,1.1949345919549466,0.555146011468023,-0.40503947502225635
1681158816871698700,0.41969873046875,1.0115209753215313,0.44153629116192455,-0.3322393194884062
1681158816881757700,0.4297578125,0.6707604957252741,0.34456367127150295,-0.19947043294310568
1681158816891816700,0.439816650390625,0.43085283845365047,0.3427257883198559,-0.027346856608986853
1681158816901875700,0.449875732421875,0.2559451843589544,0.43018575284704563,0.12066752986311911
1681158816911935700,0.459935791015625,0.04298106359243393,0.5263821276679634,0.16432897693514822
1681158816921994800,0.469994873046875,-0.06400748500823975,0.6168354287922382,0.11369827537238597
1681158816932053800,0.4800537109375,-0.09435410795509815,0.7180083499167114,0.09289835618883371
1681158816942112800,0.49011279296875,-0.1346983933031559,0.8348996491767465,0.03971943144798278
1681158816952171800,0.500171875,-0.15561960077881812,0.8655831028625368,-0.01797141775935888
1681158816962231000,0.51023095703125,-0.28227205027043817,0.8942270135447382,-0.11807926693558692
1681158816972289800,0.520289794921875,-0.3718611357808113,0.9991767497941851,-0.18491583788990973
1681158816982348800,0.530348876953125,-0.23486966310441493,1.0494487741123883,-0.230602361048758
1681158816992407800,0.54040771484375,-0.012677110743522643,1.1180613417632876,-0.328668183003366
1681158817002466800,0.550466796875,0.2447089200735092,1.2417748151935637,-0.3807023216232657
1681158817012525800,0.56052587890625,0.5424111791878938,1.4107625777199864,-0.5941384438157081
1681158817022584800,0.570584716796875,0.7672212205708027,1.58021021284312,-0.8532096512407064
1681158817032643800,0.580643798828125,0.9359592461198568,1.813972206966579,-1.1056050341635941
1681158817042702800,0.590702880859375,0.9369576095074414,2.0014716316089034,-1.2058657358139753
1681158817052762600,0.6007626953125,0.7998550776720047,2.1124352213203905,-1.2156243287622928
1681158817062822000,0.61082177734375,0.7149959432929753,2.202209454139322,-1.2609043169468641
1681158817072880600,0.620880615234375,0.6969371395111084,2.3178585713185367,-1.3228005088895558
1681158817082940000,0.63093994140625,0.6571645165711641,2.528335697574913,-1.623297367158532
1681158817092998700,0.64099853515625,0.5981991173833608,2.7037799427643416,-2.056926684588194
1681158817103058000,0.651057861328125,0.3535200079262256,2.670220202989876,-2.2512796283870933
1681158817113116700,0.66111669921875,0.06477145511806011,2.6298399695456025,-2.175765829980373
1681158817123176000,0.671176025390625,-0.11947568973004817,2.6707266912072893,-1.9288485862076281
1681158817133234700,0.681234619140625,-0.41523675164878365,2.761811568233371,-1.6868261287391184
1681158817143294000,0.6912939453125,-0.8518868782043456,2.8886557409048077,-1.629830568319559
1681158817153352700,0.701352783203125,-1.3117875319659709,2.960698648330569,-1.6724708556503056
1681158817163412000,0.711411865234375,-1.7505664872437714,2.984604424574971,-1.6995324655771253
1681158817173470700,0.721470703125,-2.1152344966500998,2.9172490904435513,-1.6599083111971615
1681158817183529700,0.73152978515625,-2.2741344342738388,2.8824557172209024,-1.6368343096017837
1681158817193589800,0.74158984375,-2.315134553182125,2.7078558139011264,-1.560707932254672
1681158817203648800,0.751648681640625,-2.3273890545994043,2.5043285067826506,-1.56843238902688
1681158817213707800,0.761707763671875,-2.439906595754623,2.2432231631815434,-1.5134388160794972
1681158817223766800,0.771766845703125,-2.7917963721305132,2.022609550575167,-1.1408359220206736
1681158817233825800,0.78182568359375,-3.2124715154409405,1.981980018544942,-0.7011760922551155
1681158817243884800,0.791884765625,-3.605792787879705,1.8962645595975218,-0.14630875159800052
1681158817253943800,0.80194384765625,-3.9408129702582952,1.623554556789994,0.3853156606376171
1681158817264002800,0.8120029296875,-4.089613246411085,1.2862208367720245,0.8638649007678031
1681158817274061800,0.822061767578125,-3.99317385661453,0.9972133407667279,1.3452309518843888
1681158817284120800,0.832120849609375,-3.810466634684801,0.5948509759992361,1.6910417006075382
1681158817294179800,0.842179931640625,-3.5556402252227066,0.1408206755757332,2.1688965287327764
1681158817304238800,0.85223876953125,-3.3124586608469486,-0.12916238648593426,2.623589676979184
1681158817314297900,0.8622978515625,-3.1539141125321386,-0.4141819818988442,2.9616619404047726
1681158817324356900,0.87235693359375,-2.962316020399332,-0.7294418172746896,3.477541671019792
1681158817334417000,0.8824169921875,-2.53775088391304,-1.05100542896986,4.086372657054662
1681158817344475600,0.8924755859375,-1.8325512352302669,-1.3958891259759663,4.7020782050341365
1681158817354535000,0.902534912109375,-1.1152329864695667,-1.589564901165664,5.238365348383784
1681158817364593700,0.91259375,-0.47852702829837795,-1.791642301736772,5.222820573249459
1681158817374653000,0.92265283203125,0.12447393640875816,-2.19060771754235,4.86969862473011
1681158817384711700,0.932711669921875,0.7956210933640598,-2.5209318510591983,4.4536610780924555
1681158817394771000,0.94277099609375,1.3451137552455066,-2.6144787342846394,3.95808354627192
1681158817404829700,0.95282958984375,1.2302797538414596,-2.3837004321470854,3.4840316175609827
1681158817414889000,0.962888916015625,1.8354712143301963,-2.4114184601560233,3.3934383234441277
1681158817424947700,0.97294775390625,2.7365894486933944,-2.749973538662493,3.431116604453325
1681158817435007000,0.983007080078125,2.5169573944702743,-2.55685802770406,3.02373465795815
1681158817445065700,0.993065673828125,1.9534952439472077,-2.380021159112453,2.447176879018545
1681158817455124700,1.003124755859375,1.0130910011172294,-2.267386129057407,1.8323650650084018
1681158817465183700,1.013183837890625,0.4196671353116631,-2.035155290023982,1.2805787392318249
1681158817475243800,1.023243896484375,0.2075277749314904,-1.5908438350602983,0.9042577014327049
1681158817485302800,1.033302734375,0.20210370405614375,-1.41167881578207,0.4826531683176756
1681158817495361800,1.04336181640625,0.12730302235484123,-1.6206284402102231,-0.13871113607585428
1681158817505420800,1.0534208984375,0.2108051891669631,-1.8099644326299429,-0.504616578322649
1681158817515479800,1.063479736328125,0.3524950487926602,-2.0010121974036097,-0.530422635230422
1681158817525538600,1.07353857421875,0.2773532985687256,-2.1576351300060748,-0.34643209549188614
1681158817535597800,1.083597900390625,0.07306640525460242,-1.993980691331625,-0.16615034714341162
1681158817545656800,1.09365673828125,-0.02289455337524414,-1.5445143378227948,-0.42070670749247074
1681158817555715800,1.1037158203125,-0.08169687095582484,-1.2557745528429747,-0.8302437861949205
1681158817565774800,1.11377490234375,-0.2659264801472425,-1.1394541122734545,-1.428382113301754
1681158817575833900,1.123833740234375,-0.46556320956796404,-1.077641506960988,-1.9702356586068868
1681158817585892900,1.133892822265625,-0.6521539949327707,-1.0028718049198388,-2.040180716970563
1681158817595951900,1.143951904296875,-0.8594719265058636,-0.8764104940861464,-1.8864549671143291
1681158817606011000,1.154010986328125,-0.9171420251861214,-0.7561573902428149,-1.7840069845527409
1681158817616070700,1.164070556640625,-0.8036988936185836,-0.4216004414618015,-1.679098164835572
1681158817626130000,1.1741298828125,-0.8832964542075991,-0.49272155786752697,-1.2096774030566215
1681158817636188700,1.184188720703125,-1.0989981832444666,-0.3319178324490785,-0.8865782523572444
1681158817646248000,1.194248046875,-1.4629402164638041,0.575665798535943,-0.8686258315593004
1681158817656306700,1.204306640625,-2.061739345566928,1.3622896387130021,-0.8028875772356987
1681158817666366000,1.214365966796875,-2.7846809871673583,1.5701941380023956,-0.22109014407694338
1681158817676424700,1.2244248046875,-3.271844910907745,1.5757786601364612,1.1574854435265063
1681158817686484000,1.23448388671875,-3.0756852099478245,1.6063187598288058,2.8625217672169208
1681158817696542700,1.244542724609375,-2.028480634565651,1.6856962479263544,4.515432182350755
1681158817706602000,1.25460205078125,-0.4302031423732638,1.6126432866752147,5.7476557637363666
1681158817716660700,1.26466064453125,-0.09365881916731596,1.495648892366886,5.7745250659614795
1681158817726719700,1.2747197265625,0.1018500166684389,1.0153121842980384,5.0539282339215275
1681158817736778800,1.28477880859375,0.3477800029695034,0.9071423169583082,4.679017062920332
1681158817746838800,1.2948388671875,-0.6294666545674205,1.4287240586072205,4.083406792986393
1681158817756897800,1.304897705078125,-1.7953411562547086,1.7851777818977832,2.6092712287694213
1681158817766956800,1.314956787109375,-3.3033032944887877,2.0911142008721826,1.469659880107641
1681158817777015800,1.325015869140625,-2.1122169023945925,1.8455133003950117,1.5176397749006747
1681158817787074800,1.33507470703125,0.022144319529831407,0.6058037471681833,2.1529279752284287
1681158817797133600,1.345133544921875,0.8862684557557106,-0.043126609542965884,1.9243419224381446
1681158817807192800,1.35519287109375,1.4659779767245054,-0.20360592531263827,1.3315408647060394
1681158817817251800,1.365251953125,2.5079341300591826,-0.5921732812225818,1.0177987404167652
1681158817827310800,1.375310791015625,3.318476021440327,-1.1788596554666757,0.23519933345019817
1681158817837369900,1.385369873046875,3.7264930509686467,-2.030724906361103,0.05705284356474876
1681158817847428900,1.395428955078125,1.0280009854793548,-1.468597219312191,0.7193845336407423
1681158817857488000,1.40548779296875,-0.501298539815843,-0.5746715268015861,0.7565326532959937
1681158817867547000,1.415546875,-0.7907888509020209,-0.07799684739410877,-0.2419944004178047
1681158817877606000,1.42560595703125,-0.56783846591115,-0.17922142564058302,-1.068454576420784
1681158817887665700,1.435665771484375,-0.5518213970899581,0.3224398100078106,-1.3321563662558793
1681158817897725000,1.445724853515625,-0.7871838121473789,0.6985171021789311,-1.3210790919244288
1681158817907784000,1.455783935546875,-1.434484521830082,1.217479601240158,-1.360270115584135
1681158817917843000,1.465843017578125,-3.8938673869490623,1.5715169110387563,-0.7356827574908733
1681158817927902000,1.47590185546875,-0.5035696996182203,-0.2985661824673414,-1.0629308445632457
1681158817937961000,1.4859609375,1.183631399913132,-0.1274257719516754,-0.15141396578252314
1681158817948020000,1.49602001953125,2.195795057052374,0.06071604224741459,-0.06798807907700538
1681158817958079000,1.506078857421875,4.457398803316057,-1.306151571905613,-1.561847165417671
1681158817968138000,1.516137939453125,4.352545220917463,-1.5673475163996218,-1.4043705385953187
1681158817978196700,1.52619677734375,2.5908424226313826,-0.8351455867618321,-0.6930009691059589
1681158817988256000,1.536256103515625,0.8823667721420526,-0.11897884612381457,-0.9936205769717693
1681158817998314800,1.546314697265625,-0.06889584157168865,0.6701479167848825,0.13025544241964818
1681158818008374000,1.5563740234375,0.551006573575735,0.07703121723234653,-0.40017362255156036
1681158818018432800,1.566432861328125,2.319811897343397,-0.479662754330039,0.5016223649427295
1681158818028492800,1.576492919921875,1.1587222918450832,-0.05346212559640407,0.166537592895329
1681158818038552000,1.586552001953125,0.08556991299688815,0.48982992807924747,-0.06986059495061636
1681158818048610800,1.59661083984375,0.40549920148849483,0.16819792732298372,0.6831123200371861
1681158818058670000,1.606670166015625,-0.389010423502326,0.499511948660016,0.5342544684782624
1681158818068728800,1.616728759765625,-1.8916706559360026,0.8426870881825685,0.0005509118810296058
1681158818078788000,1.6267880859375,-4.676470301046967,1.9505740958034992,-0.6654667732313275
1681158818088846800,1.636846923828125,-2.901318823122978,0.9689502460956573,-0.12827449773550031
1681158818098906000,1.646906005859375,2.159427274119854,-1.8857938728570938,0.5115221199274063
1681158818108964900,1.65696484375,4.887828740182519,-5.197936307361721,0.39119332049936056
1681158818119024000,1.667024169921875,4.644095971664786,-6.194152161523699,0.0640896103337407
1681158818129083000,1.677082763671875,2.5707062280535697,-5.723605026063323,-0.6043035717383026
1681158818139142100,1.68714208984375,0.5325310056865215,-5.089589914411306,-0.44439708742052314
1681158818149201000,1.697200927734375,-0.6787807205736637,-4.172631136837602,0.038304303953051566
1681158818159260200,1.70726025390625,-0.8273024720460176,-4.06741018243134,-0.04573942238986492
1681158818169319000,1.71731884765625,-0.6592746405929326,-3.874428526985645,-1.1143909826874732
1681158818179379000,1.72737890625,-0.36740064924061294,-3.246723913654685,-2.117242621602118
1681158818189438000,1.73743798828125,-0.14384090017974377,-3.1107506781101226,-2.2306503895953296
1681158818199497000,1.7474970703125,0.016645429852604865,-3.25803499674201,-1.4677084537789225
1681158818209556000,1.757555908203125,0.031468904975056645,-2.9991800624161957,-0.8414151685506105
1681158818219615000,1.767614990234375,0.9589572598695755,-2.0477268945664164,-1.267905427880585
1681158818229674000,1.777674072265625,2.238367539843917,-0.8758470149844885,-1.2539978985592721
1681158818239733000,1.78773291015625,1.3234598495811223,-1.2174755095869303,-0.3551622221753001
1681158818249791700,1.797791748046875,2.0891911238551137,-1.1797843690961598,-0.5154536141574383
1681158818259851000,1.80785107421875,1.8313924205839633,-0.16263561702072618,-0.49419104589819907
1681158818269909800,1.81790966796875,0.47682548507750033,0.4701730414509773,-0.30434944204390046
1681158818279969000,1.827968994140625,-0.3925581791117787,0.988175171047449,0.49221360834538935
1681158818290027800,1.83802783203125,-1.2316682855904102,1.1948784778535366,0.7283049221992492
1681158818300087000,1.848087158203125,-1.4481354460418223,2.075507466417551,0.0329477453559637
1681158818310146800,1.858146728515625,-1.5579472353696822,2.570757665979862,0.059309682580828665
1681158818320205800,1.868205810546875,-1.9496534738272426,2.585114692634344,0.10422668267190456
1681158818330265000,1.87826513671875,-2.0560098620042204,2.454965633198619,0.5363923572897911
1681158818340323800,1.88832373046875,-2.4532889321580527,2.2094208468228578,1.0155091681748627
1681158818350383000,1.898383056640625,-1.5959806134268641,1.7632617181658743,1.4551993930786846
1681158818360441900,1.90844189453125,-0.5946580837756394,1.5888848099470139,1.0583820952177048
1681158818370501000,1.918501220703125,-0.8062237359210849,1.6209066726297139,0.09539981761574745
1681158818380560000,1.928559814453125,-1.1836030506014823,1.6916507724165915,-0.0775549488455057
1681158818390619100,1.938619140625,-0.8738321680307388,2.121252149504423,-0.034872575938701626
1681158818400678000,1.948677978515625,-0.8297545413732528,1.9113070842981337,-0.9481418513447045
1681158818410737200,1.958737060546875,-0.6619514585867524,1.381611594298482,-1.7012182267069815
1681158818420796000,1.9687958984375,-0.3477288573041558,0.7236626493513584,-2.0010405467152594
1681158818430855000,1.97885498046875,0.3392655648633838,0.4026636858016252,-2.420781624045968
1681158818440915000,1.9889150390625,1.5039067253634333,0.3495107722848654,-2.192696506515145
1681158818450974000,1.998973876953125,2.2215147508509454,0.0426338575899601,-1.722204316112399
1681158818461033000,2.009032958984375,1.1589597538627683,-0.6270511178582906,-2.1405922252684833
1681158818471092000,2.019092041015625,0.11684154183417558,-0.46671559447348115,-2.121004019962251
1681158818481151000,2.02915087890625,-0.28951398422271013,-0.5895300732374191,-1.726178772701323
1681158818491210000,2.0392099609375,-0.8505027303695678,-1.5123866766780614,-1.2842632729634642
1681158818501268700,2.049268798828125,-1.2172159818679094,-2.5829484545111656,0.5850166874662042
1681158818511328000,2.059327880859375,-0.4677906763590872,-3.184954562962055,1.4248784890949726
1681158818521386800,2.06938671875,0.21777312848344443,-3.203065973713994,1.2331991484194993
1681158818531446000,2.079446044921875,0.8228150974988937,-2.894064321950078,2.6454151398181915
1681158818541504800,2.0895048828125,0.886067964747548,-2.8733944588869806,4.06341906696856
1681158818551564000,2.09956396484375,1.074913689432293,-2.702413622847199,4.413559077067673
1681158818561622800,2.109622802734375,1.2666225484631954,-1.6217653352856636,4.396844381371141
1681158818571682800,2.119682861328125,1.3802847296088934,-0.3365332172900438,3.64509837782979
1681158818581741800,2.129741943359375,1.3535247329771518,0.788977709826827,2.5762702919214964
1681158818591800800,2.13980078125,0.8601331668935716,2.0135329485416413,2.2437337430521844
1681158818601859800,2.14985986328125,0.3545790154598653,2.6892893528580664,2.1006194035813213
1681158818611918800,2.1599189453125,0.19123612695261835,2.7062936791509387,1.8334611896820365
1681158818621978000,2.16997802734375,-0.10135434210598468,2.3379443508833644,1.4488896254099906
1681158818632036900,2.180036865234375,0.21614508889019488,1.9256834001749752,0.7503967808894813
1681158818642096000,2.19009619140625,0.287886456086114,2.1424527584433553,0.10496785642802715
1681158818652155000,2.20015478515625,0.1143431491471827,2.310453701889515,-0.0684608111552894
1681158818662214100,2.210214111328125,-0.2182604005437344,1.9434452668368816,-0.25170330900549887
1681158818672273000,2.22027294921875,-0.36538989394009114,1.210435527947545,-0.5375318827137351
1681158818682332200,2.230332275390625,-0.2865617833536118,0.8468798636972904,-0.7891345078237354
1681158818692392000,2.240391845703125,-0.40139994947612284,0.6453706184029578,-0.9214531663835048
1681158818702451000,2.250450927734375,-0.5308540123850107,0.48645489868819713,-1.2012699324563145
1681158818712510000,2.260510009765625,-0.5553163995988667,0.37721360272467136,-1.3588827528789638
1681158818722569000,2.27056884765625,-0.5471949063330889,0.12692834382355211,-1.20420174812451
1681158818732628000,2.2806279296875,-0.5817202762693167,-0.2789543040245771,-0.8868770891733467
1681158818742687000,2.29068701171875,-0.47471411894671617,-0.48536476536393164,-0.6548572625420988
1681158818752746000,2.30074609375,-0.35247838991880415,-0.44879532237946984,-0.4382308198757469
1681158818762805000,2.310804931640625,-0.3303213570378721,-0.4089519722908735,-0.16552081706821917
1681158818772863700,2.32086376953125,-0.5058544495545327,-0.40611294947266574,0.11110519013926386
1681158818782923000,2.330923095703125,-0.486227519673109,-0.2668564544737339,0.24731837191954253
1681158818792981800,2.340981689453125,-0.35778460656814276,-0.21706571086645124,0.19964242850914596
1681158818803041000,2.351041015625,-0.3431961823105812,-0.3094493955314159,0.18161679634451866
1681158818813100800,2.361100830078125,-0.11571662945747375,-0.5673398687392472,0.06304375454261898
1681158818823159800,2.371159912109375,0.10719897648096084,-0.7688105355888605,0.1366413440644741
1681158818833218800,2.38121875,0.13878186322450636,-0.9530559268712997,0.3394460359968245
1681158818843277800,2.39127783203125,0.33927287138700485,-1.3604612542420624,0.5584893305465579
1681158818853336800,2.4013369140625,0.5336334139704704,-1.8894342751860618,0.6969722108244896
1681158818863395800,2.411395751953125,0.4989728733472526,-2.3267840744435784,0.6624252135783434
1681158818873454800,2.421454833984375,-0.28242577952742576,-2.3982845455557107,0.46915831145048137
1681158818883513900,2.431513916015625,-0.7732036559812724,-2.0189760163784025,0.15920871131196618
1681158818893573000,2.441572998046875,-0.5055838159196079,-1.4294208086997269,-0.29663959831893444
1681158818903631600,2.451631591796875,-0.10893486036285757,-0.935880335664749,-0.7526810924343764
1681158818913691000,2.46169091796875,0.046008448589593166,0.037678865531086916,-0.6850156694404781
1681158818923749600,2.47174951171875,0.1651111402887851,0.6801742207586765,-0.3107851741798222
1681158818933809700,2.4818095703125,0.4724174593769014,0.9452128121554851,-0.33963030652254816
1681158818943869000,2.491868896484375,0.17497648154720663,1.1722785235106945,-0.7401647252105176
1681158818953927700,2.501927734375,-0.057903907436132426,1.455081319656968,-0.8801790528394281
1681158818963987000,2.511987060546875,0.0012252309460192919,1.8104869951993225,-0.9694127490408718
1681158818974045700,2.522045654296875,0.05033084183335304,2.0691770943522454,-0.9739125446781516
1681158818984105000,2.53210498046875,-0.16360058959536253,2.068703047099709,-1.053553359887004
1681158818994163700,2.542163818359375,0.30282486282512544,1.981434513491392,-0.5739585562266409
1681158819004223000,2.552222900390625,0.5455716890454292,1.6023744061172007,0.0174544081479311
1681158819014281700,2.56228173828125,0.4136959519475698,1.136318152335286,0.13948036688268184
1681158819024341000,2.572341064453125,0.2546083827972412,0.806350284910202,0.3196262138918042
1681158819034399700,2.582399658203125,0.22711188858449458,0.9310340646773576,0.4291504184499383
1681158819044459800,2.592459716796875,0.10599939143285154,1.230758769530058,0.2232296403236687
1681158819054518800,2.602518798828125,1.299416710692644,0.20931436608731746,0.38335692778527736
1681158819064577800,2.612577880859375,0.2096865604005754,-1.23060562479496,0.9757470666289328
1681158819074636800,2.62263671875,-1.746044625905156,0.4006289651036262,-0.7036563647635281
1681158819084695800,2.63269580078125,-0.8677518252037465,1.1761012966692448,1.7945155190855264
1681158819094754800,2.6427548828125,0.2753905471283942,0.8700269305288791,0.5816584630794823
1681158819104813800,2.652813720703125,0.3341788361836225,0.6918710882931948,0.16949731948375701
1681158819114872600,2.66287255859375,0.38919403644092376,0.9580658639878034,0.11051394624784588
1681158819124931800,2.672931884765625,0.38633806248791513,1.21260819581151,0.29958193538114425
1681158819134990600,2.682990478515625,-0.34751864861957726,0.4187421294212341,0.7368132228255272
1681158819145049900,2.6930498046875,-0.8231015862900763,-0.47607437444925305,0.41798166644275186
1681158819155110000,2.70310986328125,-0.4162636835437268,-0.511895629414916,0.44147608540728683
1681158819165168600,2.713168701171875,-0.07486147197782993,-0.2946680059850216,0.5633396931871771
1681158819175228000,2.723227783203125,-0.06258125159740448,-0.510105238866806,0.5590232912927866
1681158819185286700,2.73328662109375,-0.25669812161810696,-0.8033703923165798,0.3018570407062769
1681158819195346000,2.743345947265625,-0.4500304901976138,-0.7357125681072473,0.03244651783555746
1681158819205404700,2.75340478515625,-0.6407208198357374,-0.6147632986932993,-0.26873832269757986
1681158819215464000,2.7634638671875,-0.8590717482071369,-0.5522480980694293,-0.5982881108410656
1681158819225522700,2.773522705078125,-0.892744300706312,-0.6635983490109443,-0.9458633850187063
1681158819235582000,2.78358203125,-0.6752548845350742,-1.1279045442551374,-1.3874901309430598
1681158819245640700,2.793640625,-0.6392407373458147,-1.0637018289357423,-1.1017638485655188
1681158819255700000,2.803699951171875,-0.176686938726902,-0.5576531719833612,-0.521675849673152
1681158819265758700,2.8137587890625,0.1838800651013851,0.0164390936255455,-0.22607465449124572
1681158819275818800,2.82381884765625,0.24865977659113703,0.25111118833124635,-0.1261301791831851
1681158819285877800,2.833877685546875,0.28998839680142696,0.19921967305243013,-0.15021642656102777
1681158819295936800,2.843936767578125,0.2510522246856242,-0.06475216589570044,-0.349042424120754
1681158819305995800,2.853995849609375,0.12587277035601435,-0.28238953917026516,-0.4642416055753827
1681158819316054800,2.8640546875,0.00043554187305271623,-0.3628735272049904,-0.4279181001760065
1681158819326113800,2.87411376953125,-0.12577625117897986,-0.2522463298410177,-0.31866584442704915
1681158819336172800,2.8841728515625,-0.2875683300476521,0.15711305420696733,-0.15198329010307787
1681158819346231800,2.894231689453125,-0.3581119388263672,0.6574503477752208,0.09576631284058093
1681158819356290800,2.904290771484375,-0.25525427948534485,0.9508487722158432,0.19216098671257495
1681158819366349800,2.914349853515625,0.01701250959932804,0.7083411615788936,-0.13047960656434296
1681158819376409900,2.924409912109375,0.1307026747304946,-0.283234757822752,-0.37349516672343014
1681158819386468900,2.93446875,-0.09563296878449619,-1.4846820926725863,-0.5119084888964891
1681158819396527900,2.94452783203125,-0.2737011327367276,-2.1241420257270334,-0.7599079749479889
1681158819406587000,2.9545869140625,-0.1889473584283143,-2.3639281024456023,-0.6775159613348544
1681158819416646000,2.96464599609375,-0.0014086977541446686,-2.345735443150997,-0.5432203036136924
1681158819426705000,2.974704833984375,0.20255553947687147,-2.29268891261816,-0.7883512484915554
1681158819436763600,2.984763671875,0.4324369658399373,-2.237438734561205,-0.934271146902442
1681158819446823000,2.994822998046875,0.501460744640231,-1.9784236412376164,-0.69964303746894
1681158819456881700,3.004881591796875,0.4593821828454733,-1.3934773886591196,-0.09689648591428994
1681158819466941000,3.01494091796875,-0.0497405477900058,-0.6615162820398807,0.5104227803833782
1681158819476999700,3.024999755859375,-0.5369961684018373,0.1534323198676109,0.9999088634610176
1681158819487059700,3.035059814453125,-0.7601672104060649,0.7012941656768321,0.9064826840057969
1681158819497118700,3.04511865234375,-0.543570870617032,0.735099404644966,0.17448124537616966
1681158819507177700,3.055177734375,-0.13072598254084586,0.40638007597625253,-0.4526078664049506
1681158819517236700,3.06523681640625,0.42888109998926516,0.546543748947978,-0.45358854800537224
1681158819527295700,3.075295654296875,0.7621199519090354,1.4475684598088263,0.1456510183416307
1681158819537354800,3.085354736328125,0.44398821435868735,1.9360206697940825,0.4259371554918587
1681158819547413800,3.095413818359375,0.21447569437325,1.7676526466012,0.5802364674523472
1681158819557472800,3.10547265625,0.13611300934143364,1.311681148982048,0.7705465656012296
1681158819567531800,3.11553173828125,0.017050576587393878,0.38835809707343577,0.9204678086079656
1681158819577590800,3.1255908203125,0.14344912438318133,-0.0460930581331253,1.2159026342470198
1681158819587650800,3.13565087890625,0.27331600587666033,-0.27280980992019177,1.4772558881945907
1681158819597709800,3.145709716796875,0.4368167152941227,-0.0697299543082714,1.4353062134765087
1681158819607768800,3.155768798828125,0.5084920315165072,0.41298166619837284,1.1717504079833625
1681158819617827800,3.165827880859375,0.20065891207531095,1.1456254943847655,0.7232372635461389
1681158819627886800,3.175886962890625,-0.058754240655153986,2.116671835976839,0.47560303061045706
1681158819637945900,3.18594580078125,-0.12182780581414698,2.8150229339390993,0.17276377393379808
1681158819648004900,3.1960048828125,-0.032321868542581796,2.993972556900978,-0.17700550315678118
1681158819658064000,3.20606396484375,0.27770854174718257,2.1965940984755754,-0.40831279760450123
1681158819668123000,3.216122802734375,0.5369768791794777,1.3304232588529585,0.15555610708855092
1681158819678182000,3.226181884765625,0.4195318184942007,0.931934228387475,0.8452503627993166
1681158819688240600,3.23624072265625,0.020182444872334598,0.6725514707952738,0.8708615547221153
1681158819698301000,3.246301025390625,-0.20356676234602927,0.9964467403084039,0.4725453235402703
1681158819708359700,3.256359619140625,-0.2882318354576826,1.5479472348809242,0.1787695902198553
1681158819718419000,3.2664189453125,-0.5243675729751587,1.197807517042756,-0.20323234275989233
1681158819728477700,3.276477783203125,-1.0105858133632688,0.254944482883811,-0.370884399703145
1681158819738537000,3.286536865234375,-1.0399323193568735,-0.2526087334126234,-0.3050982876498252
1681158819748595700,3.296595703125,-0.827635649523139,-0.7503636092722415,-0.29494404644742606
1681158819758654700,3.30665478515625,-0.7325445325303822,-2.0256185231328008,-0.6713908295180648
1681158819768713700,3.316713623046875,-0.5969388881891966,-3.3759745629459617,-0.8568111097987741
1681158819778772700,3.326772705078125,-0.358069926315546,-3.3518402386426924,-0.846496782663837
1681158819788831700,3.336831787109375,-0.33958208346664903,-1.5233949774265287,-0.5208840417083352
1681158819798891800,3.346891845703125,-0.37161154493391513,0.1882020199537277,-0.45564533440470695
1681158819808950800,3.35695068359375,-0.1848077013403177,0.8890063562870025,-0.8098888342998921
1681158819819009800,3.367009765625,0.05885850474722683,1.1842220592826604,-0.962749637889862
1681158819829068800,3.37706884765625,0.04550627122111618,1.217994565024972,-0.8098842311900109
1681158819839127800,3.3871279296875,-0.07932305449657141,0.7164169160068035,-0.6074445001125335
1681158819849186800,3.397186767578125,0.0012468582559376955,-0.011722586497664451,-0.3481833961386233
1681158819859245800,3.407245849609375,0.20069668680243194,-0.6702367641121149,-0.08481222649738192
1681158819869304800,3.417304931640625,0.23472996237277982,-0.9069739746540785,0.17652064224928615
1681158819879363800,3.42736376953125,0.17753047687895596,-0.6719453215956688,0.13566964948810636
1681158819889422800,3.4374228515625,0.014344678629562258,-0.8073515709072351,-0.13305639824979007
1681158819899483100,3.447483154296875,-0.3582441869039088,-2.1065695441573857,-0.32683263813927765
1681158819909542100,3.457542236328125,-0.4923053782820701,-2.5965251444429156,-0.29918329145237804
1681158819919601200,3.46760107421875,-0.15755210321135818,-2.214226201277971,0.027651684774458406
1681158819929660200,3.47766015625,0.18297997445650396,-1.7075328166812658,0.33118820300027724
1681158819939719200,3.48771923828125,0.35416122843921183,-1.6335539727568626,0.33015447603836656
1681158819949778200,3.497778076171875,0.3346779448121786,-1.6255249800801277,0.10129055615477263
1681158819959837200,3.507837158203125,0.06971132267303765,-0.9954565602272748,0.034227044576779005
1681158819969896200,3.517896240234375,-0.21107136582247912,-0.4948825352936983,-0.08976699936054647
1681158819979955200,3.527955078125,-0.34488077439665793,-0.20340192717313765,-0.26912717588469387
1681158819990014000,3.538013916015625,-0.25208383275568486,-0.20488252111971378,-0.3497818443112075
1681158820000074200,3.54807421875,0.026453122639656067,0.6776841575086117,0.10749540214426814
1681158820010133200,3.55813330078125,0.2546634009201079,1.0760241348922253,0.19776077948100865
1681158820020192300,3.568192138671875,0.43932840585410593,0.7417559399247169,0.12342285645324737
1681158820030251300,3.578251220703125,0.17052790464051068,0.90657942237854,0.3600660320362076
1681158820040310300,3.588310302734375,-0.12635142071843147,0.9336223276048898,0.5825885104712099
1681158820050369300,3.598369384765625,-0.5136632236093283,0.4725964692056179,0.19501798357889055
1681158820060428000,3.608427978515625,-0.19429273804426192,0.15780921977758405,0.01567724240757525
1681158820070487300,3.6184873046875,0.27244455680437385,0.4035100734978914,0.10038893113993108
1681158820080546000,3.628546142578125,0.3288492386586964,1.3606629142940043,0.640985827447474
1681158820090605300,3.638605224609375,-0.38069150796830653,1.65440971378088,0.5987932838842273
1681158820100665000,3.6486650390625,-0.6708463473778218,0.8586743463873863,-0.05472410835623741
1681158820110724000,3.65872412109375,-0.15395831650309263,0.1635287664681673,-0.3747935725035146
1681158820120783000,3.668783203125,0.13539748148322103,-0.14560148011147975,-0.4615070660449564
1681158820130842000,3.678842041015625,0.02891870903559029,-0.1754407380580902,-0.2921852127259597
1681158820140901000,3.688901123046875,-0.10293781190514564,-0.3708417296051979,-0.213637343852967
1681158820150960000,3.698960205078125,0.0549509028494358,-0.30869828490316864,0.06314874928705394
1681158820161019100,3.70901904296875,0.18938691888935863,0.30560090340971946,0.4119613467073068
1681158820171078100,3.719078125,0.2139491132158786,1.1442495298564432,0.6147779117405414
1681158820181137200,3.72913720703125,0.1229161855727434,1.6301906338036058,0.41735359767228364
1681158820191197200,3.739197265625,0.1382148769915104,1.942836779549718,0.339916868378967
1681158820201256200,3.749256103515625,0.05376147386915982,1.9840368049442767,0.2706675006618723
1681158820211315200,3.759315185546875,0.06250942847020924,1.6640777058362959,0.11861246049683541
1681158820221374200,3.769374267578125,0.17558401898629963,1.120460073468089,-0.07342415091739966
1681158820231433200,3.77943310546875,0.13036825514435768,0.8422183016270398,-0.07117883794233203
1681158820241492200,3.7894921875,0.06265314778983593,0.8503893331229686,-0.03661540101803839
1681158820251551200,3.79955126953125,0.2923182279884815,0.7488368380963802,-0.1526822321526706
1681158820261610200,3.8096103515625,0.1524263576954603,0.7048416290253401,-0.1536664208844304
1681158820271669200,3.819669189453125,-0.30031098030805586,0.8321627715587615,-0.10597849477529525
1681158820281728300,3.829728271484375,-0.4823808541823178,0.7547405091822147,-0.2325300959746353
1681158820291788000,3.8397880859375,-0.23053894042372702,0.4422971925318241,-0.2025246328819543
1681158820301847300,3.849847412109375,-0.12480419127643108,-0.120790863981843,-0.01336662737764418
1681158820311906000,3.859906005859375,-0.15488018058836459,-0.5750251625448465,0.303467252381891
1681158820321965300,3.86996533203125,-0.19881518390476702,-0.7145148817777633,0.4721894227746874
1681158820332024000,3.880024169921875,-0.2720492738764733,-0.799561647683382,0.39682080499231814
1681158820342083300,3.890083251953125,-0.324281638482213,-0.5784773488253354,0.18796002789139746
1681158820352142000,3.90014208984375,-0.289942657963559,-0.34559272205829616,-0.03330538142090663
1681158820362201000,3.910201171875,-0.18716398214288055,-0.370395739403367,-0.048322607283480465
1681158820372260000,3.920260009765625,-0.24979075338244436,-0.4477069426208734,0.19495785088948905
1681158820382320000,3.930320068359375,-0.23296938244104384,-0.5050935481846333,0.36083193837478755
1681158820392379400,3.94037939453125,-0.23396182754449546,-0.6349427478909492,0.2995265884647146
1681158820402438100,3.950438232421875,-0.25773433279804886,-0.7441290987968444,0.23590971020925788
1681158820412497400,3.960497314453125,-0.12204743991419673,-0.7207797873914241,0.2903791496846825
1681158820422556200,3.97055615234375,-0.010052022936940193,-0.47821430908739565,0.32635508375540373
1681158820432615200,3.980615234375,-0.07310374159030616,-0.3605062135517597,0.39797461466994133
1681158820442674200,3.990674072265625,-0.10976678114235401,-0.46290158914327617,0.48811048387549816
1681158820452733200,4.000733154296875,-0.12457206302098929,-0.5553501557379961,0.41244931288734077
1681158820462792200,4.010792236328125,-0.15398805405423044,-0.5540449183583259,0.09435315810702741
1681158820472851200,4.020851318359375,-0.1507264219097793,-0.39939854652583595,-0.34782965079750866
1681158820482911200,4.0309111328125,-0.1723387534547597,-0.202472537368536,-0.7669263292774557
1681158820492970200,4.04097021484375,-0.24072883746139703,-0.07450491362512111,-0.7691689936377107
1681158820503029000,4.051029052734375,-0.197483643040061,0.23431144469976423,-0.6129631904687732
1681158820513088300,4.061088134765625,-0.11885441602654755,0.17969664193689822,-0.2997238646024838
1681158820523147000,4.07114697265625,-0.39446284368932244,0.3421943117916584,0.06218121942915022
1681158820533206300,4.081206298828125,-0.6062433806944638,0.32486791393756864,-0.36930030884947623
1681158820543265000,4.09126513671875,0.17852767122276125,0.15209025760889053,-0.7333702427648008
1681158820553324300,4.10132421875,0.6962515683997422,0.4883271223008632,-0.8979258680626749
1681158820563383000,4.111383056640625,0.45672158533409235,0.4794137480050325,-0.8884106554161757
1681158820573443000,4.121443115234375,0.16039346411712466,0.17822773842811584,-0.4046974931841716
1681158820583502300,4.13150244140625,0.012704071815684437,-0.032495909935235975,0.05167367127705365
1681158820593561000,4.14156103515625,-0.08501344815790653,0.10327683460116385,0.1396264973551035
1681158820603620400,4.151620361328125,-0.07527998965084552,0.12345803736448287,-0.05006400759071111
1681158820613679000,4.16167919921875,0.14508841602280736,0.057009588944911954,-0.3314741803348064
1681158820623738400,4.17173828125,0.2845797426909208,0.048202597633004184,-0.37028716446235777
1681158820633797000,4.181797119140625,0.22206695321984588,0.17798866897523402,-0.3144401164907962
1681158820643856400,4.1918564453125,0.13216098378002641,0.33284254607856273,-0.36927192300520834
1681158820653915100,4.2019150390625,0.1744826336156577,0.37528701857626434,-0.5307525247719138
1681158820663974400,4.211974365234375,0.21458609594516456,0.16492168213129044,-0.5188127153269946
1681158820674034200,4.2220341796875,-0.07652794388532638,-0.22809680796861648,-0.5269098048038781
1681158820684093200,4.23209326171875,-0.3422597051780671,-0.6458323906958103,-0.7787208850327879
1681158820694152200,4.242152099609375,-0.32330132220797236,-1.6863076578229665,-1.0691641859948635
1681158820704211200,4.252211181640625,-0.35104046607017514,-2.4580530778199434,-0.5911879234470426
1681158820714270200,4.262270263671875,-0.5230570748984813,-1.9840484953820705,0.3754329298529774
1681158820724329200,4.2723291015625,-0.264655071971938,-1.4235650684088468,0.9171780463475734
1681158820734388200,4.28238818359375,0.18946005719080566,-0.9297902020961045,0.9741977913603186
1681158820744447200,4.292447265625,0.419543362801522,-0.48656712689101694,0.7194649054005742
1681158820754506000,4.302506103515625,0.40606158461160957,-0.1072007300466299,0.37376265855319796
1681158820764566300,4.312566162109375,0.18246143047511576,0.1562087988436222,0.07278422731235623
1681158820774625000,4.322625,0.0024918168157339097,0.2528460492998361,-0.15222769331820307
1681158820784684300,4.332684326171875,-0.002781155151128769,0.32956513184309005,-0.2227191335182637
1681158820794743000,4.342742919921875,0.16782207974791527,0.5184054497003555,0.07828421296812593
1681158820804802300,4.35280224609375,0.25954298965521155,0.5665472570568323,0.4320926824469119
1681158820814861000,4.362861083984375,0.12575645049996673,0.2785901468873024,0.5976205137778073
1681158820824920000,4.372920166015625,0.11203004989922045,0.5353057310968637,0.6172787155803293
1681158820834979300,4.382979248046875,-0.08191716264300047,0.6534551406592131,0.4285329441387206
1681158820845038000,4.3930380859375,-0.2123918738365173,0.6249976924598216,-0.05250241371877491
1681158820855098400,4.403098388671875,-0.19218202950060367,0.3659638944357633,-0.29330475480780005
1681158820865157000,4.4131572265625,-0.21394553301930427,-0.30744623901546,-0.44233818212933834
1681158820875216100,4.423216064453125,-0.4048971439421177,-1.3902292005181311,-0.46567573003172874
1681158820885275100,4.433275146484375,-0.21795009248554706,-1.554952729728818,-0.296233282540366
1681158820895334100,4.443334228515625,0.0628461130786687,-0.9772492878854274,0.2732395431069657
1681158820905393000,4.453392822265625,-0.14821137034893034,-0.8277946394771337,0.8520723908390849
1681158820915451600,4.46345166015625,-0.28726328268647194,-0.5509276631206274,1.1370522387634963
1681158820925511000,4.473510986328125,-0.2734394130606204,-0.499815900042653,1.2675389326557516
1681158820935569700,4.483569580078125,-0.0680314067620784,-0.2180781027793884,1.1354887157738207
1681158820945630000,4.4936298828125,0.4846318479795009,0.3638818274646997,0.6493200866810978
1681158820955688700,4.503688720703125,0.29528299607820807,2.3913170446306466,0.28331235310360786
1681158820965747700,4.513747802734375,0.08607968914993107,1.3191086686342954,-0.6170901342056692
1681158820975806700,4.523806640625,0.018504209461808203,0.14078735782802104,-0.7909650842517614
1681158820985865700,4.53386572265625,-0.06587262129299343,0.897237593537569,-0.2596259186983108
1681158820995924700,4.5439248046875,-0.11229717640280723,1.235251404774189,-0.11900792608782648
1681158821005983700,4.553983642578125,0.08140643664188682,1.3182856618136167,-0.34747385962978006
1681158821016042800,4.564042724609375,0.3125953654069453,1.7715975848346948,-0.21887845937684178
1681158821026101800,4.574101806640625,0.5931481906693429,2.188902959451079,0.026641192557662723
1681158821036161800,4.584161865234375,0.5752068757873028,1.6586469129592178,-0.03373831121176481
1681158821046220800,4.594220703125,0.545340802899003,1.297507077679038,0.3120439420692622
1681158821056279800,4.60427978515625,0.5110644392877817,1.359728848314285,0.36577480160444975
1681158821066338800,4.6143388671875,0.2876800467938185,1.1854261743754149,0.35710078902244563
1681158821076397800,4.624397705078125,-0.07896065092496574,1.0010352371424436,0.6198929166667163
1681158821086456800,4.634456787109375,-0.5062386265665293,0.8891291058838366,0.8713198929488658
1681158821096515800,4.644515869140625,-0.7588858653586358,0.9027887979239225,0.9801676595501602
1681158821106574800,4.654574951171875,-0.7304233025927096,0.3080208240330219,0.658950377074629
1681158821116633900,4.6646337890625,-0.5675654941886663,-0.7887637748152018,0.05542246588394045
1681158821126693600,4.674693603515625,-0.6767097595185041,-1.2025795537501573,0.030577655223757026
1681158821136753000,4.6847529296875,-0.7556932798624039,-1.3189087621480227,0.13516323433592914
1681158821146811600,4.694811767578125,-0.714681470516324,-1.4604109902471303,0.2802615872308612
1681158821156871000,4.704870849609375,-0.5103642551291734,-1.304140816605091,-0.06675298432409763
1681158821166929700,4.7149296875,-0.25286292736940086,-0.7791992431342601,0.13294175889417528
1681158821176989000,4.724989013671875,-0.3468991284817457,-0.123021399512887,0.5092898308306932
1681158821187047700,4.735047607421875,-0.4687526532590389,0.12274725874662398,0.1886488869383931
1681158821197107000,4.74510693359375,-0.5245634608734399,0.02554009944796562,-0.1965150902688503
1681158821207165700,4.755165771484375,-0.45016493023224174,-0.15926935545802115,-0.3182400202304125
1681158821217225700,4.765225830078125,-0.2562554924171418,-0.37785774584710596,-0.38122429967075583
1681158821227285000,4.775284912109375,-0.17061076061837374,-0.6127303315609693,-0.5321382069766522
1681158821237343700,4.78534375,-0.17117840443849563,-0.806566558009386,-0.45919455131888387
1681158821247403000,4.795403076171875,-0.161785064605996,-0.6103776309549808,-0.22648323529213665
1681158821257461800,4.805461669921875,-0.037429786140844225,-0.2871504699617624,-0.2098432122670114
1681158821267521000,4.81552099609375,0.08142908686511217,-0.05213876803815364,-0.3832058288767934
1681158821277579800,4.825579833984375,0.1429674783460796,0.07492635390758513,-0.5060128549866378
1681158821287638800,4.835638671875,0.2524615069616586,0.21239830357730388,-0.5305754877045751
1681158821297697800,4.84569775390625,0.3656881462343037,0.017547347128391264,-0.6868820478342473
1681158821307757800,4.8557578125,0.35562779386043547,-0.38533494985997674,-0.7910568541884422
1681158821317816800,4.86581689453125,0.2784902667094022,-0.8123731984615326,-0.7480369198903442
1681158821327875800,4.875875732421875,0.046504561543464655,-1.230247312876582,-0.5201031935289502
1681158821337934800,4.885934814453125,-0.11857384551949798,-0.8658575358897447,-0.1413075823098421
1681158821347993900,4.895993896484375,0.06096804424710572,-0.48770519101023674,0.05445625120028853
1681158821358052600,4.906052490234375,0.34128194618709384,-0.2447346390366554,0.14351941314041614
1681158821368111900,4.91611181640625,0.3653296881854534,0.21775836930572987,0.27627310211658473
1681158821378170600,4.926170654296875,0.20265666176378727,0.7877233258515596,0.3096120387472212
1681158821388230000,4.93622998046875,0.08306165650300681,1.1025789643406867,0.1446688754364848
1681158821398290000,4.9462900390625,0.0094721772223711,0.9088502899199724,-0.0911241861231625
1681158821408348700,4.9563486328125,-0.03623568098545074,0.14474281745553016,-0.18391688998043537
1681158821418408000,4.966407958984375,-0.06507124178223311,-0.5012824654638767,0.027024054395407438
1681158821428466700,4.976466796875,-0.0780868637651205,-0.5237748677790165,0.2884690052144229
1681158821438526000,4.98652587890625,-0.06458791524469852,-0.41684243327975273,0.399421781270951
1681158821448584700,4.996584716796875,-0.1793145107515156,-0.5041910463869571,0.34160423694401976
1681158821458644000,5.00664404296875,-0.21856384046971797,-0.7627841149061918,0.2582524383880198
1681158821468702700,5.01670263671875,-0.2001395643763244,-0.5772621278166771,0.39301264488101
1681158821478762800,5.0267626953125,0.01433072316944599,-0.14067980580031872,0.4236978521324694
1681158821488821800,5.03682177734375,0.2564391053557396,0.691378336340189,0.3427580831542611
1681158821498880800,5.046880859375,0.2754180196572095,1.4877169303238391,0.23913316576778887
1681158821508939800,5.056939697265625,0.2459719257466495,1.8431518319606779,-0.02224924120903015
1681158821518998800,5.066998779296875,0.4092934061396867,2.448985389745235,-0.15164076027572154
1681158821529057800,5.077057861328125,0.5428133302479982,2.0478794547796246,-0.4198654343627393
1681158821539116800,5.08711669921875,0.21545783727839588,0.8511544722765684,-0.24942221233099698
1681158821549175800,5.09717578125,0.10121822157092392,0.6755009682506322,0.2901863305263221
1681158821559234800,5.10723486328125,0.18782916805334388,0.34055706597864627,0.25235578156486155
1681158821569293800,5.1172939453125,0.19187807811796664,-0.1685433797597885,0.20707710855454206
1681158821579353900,5.127353759765625,-0.0070709612995386115,-1.1449977178752422,0.029427608405798673
1681158821589412600,5.13741259765625,-0.35893194997236133,-1.5072989981502294,-0.10402122322767972
1681158821599471900,5.147471923828125,-0.3831774795651436,-0.8514233523458242,-0.05875146417617798
1681158821609530600,5.157530517578125,-0.10125424273237585,-0.1831441520422697,0.10031389314234256
1681158821619590000,5.16758984375,0.08739610551074146,0.06918401086330414,0.30782676276564597
1681158821629648600,5.177648681640625,0.07510879780240357,0.1392477271705866,0.29029300577118994
1681158821639708000,5.1877080078125,0.009722790982574224,0.11812544416487217,0.12546966944783924
1681158821649766700,5.1977666015625,-0.08675780760720371,-0.0389127912402153,-0.08314473167657851
1681158821659826700,5.20782666015625,-0.1755250553406775,-0.19012509697079658,-0.22755115678459403
1681158821669886000,5.217885986328125,-0.24017419925332067,-0.2026584153294563,-0.21292831880077717
1681158821679944700,5.22794482421875,-0.3026660190016031,-0.013625205248594284,-0.023766660034656523
1681158821690004000,5.23800390625,-0.2660240953028202,-0.04487666808068752,0.010566986721754074
1681158821700062700,5.248062744140625,-0.1345499247431755,-0.13056523902118206,-0.019385814601927995
1681158821710122000,5.2581220703125,-0.18152444188594816,0.007981646403670311,-0.060416767039895056
1681158821720180700,5.2681806640625,-0.18422201040685177,0.08065291486084461,-0.10271423228234051
1681158821730239700,5.27823974609375,-0.09021335488855839,0.06524959402382373,-0.2095207023143768
1681158821740298800,5.288298828125,-0.08597674023211002,0.03510170851945877,-0.2718669761121273
1681158821750358800,5.29835888671875,-0.08221183474063873,0.016821370941400526,-0.24317484237402676
1681158821760417800,5.308417724609375,-0.041583617884665726,-0.024544658669829366,-0.13562559115067124
1681158821770476800,5.318476806640625,-0.0049350452493876215,-0.047581250864267344,-0.019313772279024123
1681158821780535800,5.328535888671875,0.018880495428293943,-0.011389409020543098,0.07524155733659862
1681158821790594800,5.3385947265625,0.009436375256627797,0.08175064696967602,0.09539265722259879
1681158821800653800,5.34865380859375,0.02818915265202522,0.14637772518098355,-0.018323153806477786
1681158821810712800,5.358712890625,-0.00360416197180748,0.106616792678833,-0.19013386479914188
1681158821820771600,5.368771484375,-0.12772037098407746,-0.004392682000994682,-0.2763885451897979
1681158821830831900,5.378831787109375,-0.259167799667269,-0.08404372634291649,-0.19753888035863637
1681158821840891000,5.388890869140625,-0.2778536493062973,-0.13438625861406325,-0.07349106040745973
1681158821850950000,5.398949951171875,-0.2101246595568955,-0.17324352027475834,-0.01167991639971733
1681158821861009000,5.4090087890625,-0.17771219012141226,-0.13809446548223495,0.07363222244381905
1681158821871067600,5.419067626953125,-0.22538623383566736,-0.11975275310575961,0.1426509597428143
1681158821881127000,5.429126953125,-0.21779453659765421,-0.07536357628107071,0.24386136333346364
1681158821891185700,5.439185546875,-0.17603037451431156,0.06564706890881061,0.19244652565568685
1681158821901245400,5.449245361328125,-0.15789397545158862,0.12370061394870281,0.07208382395803928
1681158821911304400,5.459304443359375,-0.17149930695593357,0.1342231770068407,0.053128363597393036
1681158821921364500,5.469364501953125,-0.24806400265507397,0.27096388979256153,0.19790259910449384
1681158821931423500,5.479423583984375,-0.2848059526622295,0.40205695208013054,0.406915351896733
1681158821941482500,5.489482421875,-0.22134959873072801,0.2930518029600382,0.4259557140618562
1681158821951541500,5.49954150390625,-0.1455214006125927,0.05006722246110439,0.3243018044874072
1681158821961600500,5.5096005859375,-0.1891658234845847,-0.033954292050004005,0.2633541454412043
1681158821971659500,5.519659423828125,-0.20779519369602203,-0.07962240276932715,0.11004998199790715
1681158821981718500,5.529718505859375,-0.1921316144876182,-0.13911913235485554,0.0038942309595644473
1681158821991777500,5.539777587890625,-0.13879523416273296,-0.1740770484894514,-0.09941256038844584
1681158822001837600,5.549837646484375,-0.10199278613999485,-0.12537176203131675,-0.22125921703353524
1681158822011896300,5.559896240234375,-0.07377733000293374,0.007077391040325165,-0.30778336201533674
1681158822021955600,5.56995556640625,0.10067980384528637,-0.08622866916656494,-0.4989326874673366
1681158822032014300,5.580014404296875,0.10558803415298461,0.09968377854526042,-0.195698805449903
1681158822042073600,5.590073486328125,0.06642923226244747,0.32199791145920753,-0.22637173774167893
1681158822052132400,5.60013232421875,0.3757997904039919,0.08848141652941703,-0.2153768809966743
1681158822062191400,5.61019140625,0.45443785831108685,0.011658289089798927,-0.022863719845563173
1681158822072250400,5.62025048828125,0.3883570010948926,0.005446574968099594,0.02335457210242748
1681158822082310400,5.630310302734375,0.3884674757320434,-0.031737200522422786,-0.024215280584990978
1681158822092369700,5.64036962890625,0.3511469221193343,-0.1146422782242298,-0.1044895713917911
1681158822102428400,5.650428466796875,0.20636435717530546,-0.12554711859822273,-0.12258344648703932
1681158822112487700,5.66048779296875,0.14375731354951857,-0.17592998287975786,-0.1932009972847998
1681158822122546400,5.67054638671875,0.13135799683406948,-0.16301380268335341,-0.12501315785199402
1681158822132605400,5.68060546875,-0.02403890110477805,0.29450960055291653,0.16391820417717098
1681158822142664400,5.69066455078125,-0.036070626616850496,0.5171393752872944,0.227112034714967
1681158822152723500,5.700723388671875,0.17344342676103114,0.21246552359461784,0.28756679567769167
1681158822162782500,5.710782470703125,0.11559738699197769,0.08986965601742267,0.5283820693135262
1681158822172842500,5.720842529296875,0.021438363217562435,0.036406361377239224,0.6859253316313028
1681158822182901500,5.730901611328125,0.017932620118930934,-0.08427227440178393,0.7406009246706963
1681158822192960500,5.74096044921875,0.005973813712596893,-0.10047989735901355,0.6107198685213923
1681158822203019300,5.751019287109375,-0.08790347051098943,0.006668810239434242,0.4449611510440707
1681158822213078500,5.76107861328125,-0.1283059888523072,0.019741642302274702,0.28491555051654577
1681158822223137300,5.77113720703125,-0.10802432138919829,0.027293665117025374,0.2011914115168154
1681158822233196500,5.781196533203125,-0.12186046597473323,0.06530278551578521,0.25633549885079265
1681158822243255300,5.79125537109375,-0.11407295390367507,0.12154197461009025,0.3652962243072688
1681158822253315300,5.8013154296875,-0.0652332274109125,0.17456453974545,0.4121649429880082
1681158822263374600,5.81137451171875,0.00696340927183628,0.152309453317523,0.34891865161061286
1681158822273433300,5.821433349609375,0.005390533931925893,0.13095453059971332,0.1710581390596926
1681158822283492600,5.83149267578125,-0.022666735968738794,0.11739128467142582,-0.0067842533126473425
1681158822293551400,5.84155126953125,-0.050195378885418175,0.05440145227313042,-0.09118000796362757
1681158822303610600,5.851610595703125,-0.07175766074359416,-0.0055956280499696726,-0.09383505251705646
1681158822313669400,5.86166943359375,-0.10376505650952458,-0.036247371423244475,-0.06599895108640194
1681158822323728600,5.871728759765625,-0.1029869117438793,-0.033195582637190815,-0.07802914222851395
1681158822333788400,5.881788330078125,-0.06290566124618054,-0.005486322456598282,-0.13964169492423534
1681158822343847400,5.891847412109375,0.008991700229048728,-0.038139468780159946,-0.2765460738390684
1681158822353906400,5.901906494140625,0.05149228682816028,-0.06380114878118037,-0.3649827744439244
1681158822363965400,5.91196533203125,0.04387304399609566,-0.10557926632463932,-0.45204190308526154
1681158822374024400,5.9220244140625,0.030973668804019687,-0.12206862883269787,-0.4670205687694251
1681158822384083500,5.93208349609375,-0.010450228474289178,-0.07667290531396866,-0.3989499259755015
1681158822394142500,5.942142578125,-0.024736893306300044,0.01793137800991535,-0.32970570935755966
1681158822404201500,5.952201416015625,-0.004900047001242637,0.08272972113490104,-0.2610642809383571
1681158822414260500,5.962260498046875,0.04476911605298519,0.0745101743221283,-0.14073811185881493
1681158822424320500,5.972320556640625,0.06830028683133423,0.030313305199146268,-0.011925269462913274
1681158822434379500,5.982379638671875,0.06493921290040015,0.010696750581264495,0.04617883672043681
1681158822444438500,5.9924384765625,0.050682577880471945,-0.018719898039102553,0.1102170091278851
1681158822454497500,6.00249755859375,0.04169285041280091,-0.04201835604012012,0.15264350757747888
1681158822464556500,6.012556640625,-0.001966843093559146,-0.054091071149706835,0.13885536685213445
1681158822474615600,6.022615478515625,-0.027253917628526685,-0.057522214642167085,0.08854089163169264
1681158822484674600,6.032674560546875,-0.04345094612650573,-0.03442600121498108,0.03397840357795358
1681158822494733600,6.042733642578125,-0.0739390964359045,-0.0030219781696796417,0.010052461328357458
1681158822504793300,6.05279345703125,-0.08464103464893996,0.02435235096812248,0.025575755283236502
1681158822514852600,6.0628525390625,-0.06362747271470726,0.044459903973340986,0.07100757302865386
1681158822524911400,6.072911376953125,-0.04431026636958122,0.047537411722540855,0.09998217696994542
1681158822534970600,6.082970703125,-0.019208119947463274,0.04896715226471424,0.07271876086071133
1681158822545029400,6.093029296875,0.008803484180569648,0.028531097957491872,0.004918751701712608
1681158822555088600,6.103088623046875,0.024067688807845114,0.008207271853089332,-0.08967384118437767
1681158822565147400,6.1131474609375,0.046930239609628915,0.0006242693781852722,-0.17781740406155586
1681158822575206400,6.123206298828125,0.05907134378030896,-0.0034580314993858333,-0.25390841783434154
1681158822585266400,6.133266357421875,0.04636719889938831,-0.008974164572358131,-0.26462504215985533
1681158822595325400,6.143325439453125,0.009859715235233307,0.010758709901571272,-0.2585240949362516
1681158822605384400,6.153384521484375,0.0036351416319608688,0.016727262917160986,-0.2899909540846944
1681158822615443500,6.163443359375,0.032801468753069635,-0.0031663550764322278,-0.363659416885674
1681158822625502500,6.17350244140625,0.03562193300127983,-0.01522095000743866,-0.3722099492184818
1681158822635561500,6.1835615234375,0.020030980637669563,-0.01896831984221935,-0.3688444183081388
1681158822645620500,6.193620361328125,0.011945873859524727,-0.01663257037103176,-0.3501017239153385
1681158822655679500,6.203679443359375,0.030653496938943862,-0.011135141998529434,-0.3091444212354719
1681158822665739500,6.213739501953125,0.022083383122831583,-0.005054945302009582,-0.2658442086912691
1681158822675798500,6.223798583984375,0.007906316145136951,-0.0027291327029466627,-0.21313231694027782
1681158822685857500,6.233857421875,-0.0007959726832807064,-0.016923077750205993,-0.16049743594825266
1681158822695916300,6.243916259765625,-0.03671433134786784,-0.02320902615189552,-0.10888459148034453
1681158822705975600,6.2539755859375,-0.06620411826968192,0.004618307450413704,-0.03245528566390276
1681158822716034300,6.264034423828125,-0.10205277269892393,0.041291795331239695,0.027466245204955338
1681158822726093600,6.274093505859375,-0.10646306342184543,0.022712767067551612,0.11499606009796261
1681158822736152300,6.28415234375,-0.13620645977854728,0.031386487388610836,0.20848200691640376
1681158822746212600,6.294212646484375,-0.14456979897618294,0.04298807785511016,0.22748305998444557
1681158822756271400,6.304271240234375,-0.09984861371815204,0.027623919984698295,0.24383447532653807
1681158822766330400,6.314330322265625,-0.08529051153361797,0.006459551402926445,0.2590659467279911
1681158822776389400,6.324389404296875,-0.07446275498382747,0.022212416329979896,0.2866074491262436
1681158822786448400,6.334448486328125,-0.048767172713205215,0.041944706282019614,0.2689066650018096
1681158822796507400,6.34450732421875,-0.01725508618354797,0.023539281019568443,0.23540303932875392
1681158822806566400,6.35456640625,-0.01302212478891015,0.002599368843436241,0.18891046048402785
1681158822816625400,6.36462548828125,-0.00013078677281737328,0.003525836038589477,0.14375439094007014
1681158822826685400,6.374685546875,-0.005117343013733625,0.03308160086870193,0.08270575573742389
1681158822836744400,6.384744384765625,-0.007680033108592033,0.07125380287468433,-0.02540434423908591
1681158822846803500,6.394803466796875,-0.0033543519292026755,0.10232640200853348,-0.12635858111158013
1681158822856862500,6.404862548828125,-0.015365180783718823,0.0797428142786026,-0.18678236241415141
1681158822866921500,6.41492138671875,0.014171294824033974,0.05445581280887127,-0.20812895569503306
1681158822876980500,6.42498046875,0.024427242835238575,0.044911739394068714,-0.2125254370883107
1681158822887039500,6.43503955078125,0.04575286639332771,0.019838088414072988,-0.17272563388049603
1681158822897098500,6.445098388671875,0.0935322701781988,0.018566753304004667,-0.13461422215104102
1681158822907158000,6.455157958984375,0.13325754684507846,0.020406828212738037,-0.1355665544398129
1681158822917217000,6.465217041015625,0.11502747814953326,0.021892098334431648,-0.16341916861385106
1681158822927275800,6.47527587890625,0.07506956177055835,0.029030279651284217,-0.16210881666764615
1681158822937335000,6.4853349609375,0.06631795390769839,0.031790392014384265,-0.1204135551020503
1681158822947393800,6.495393798828125,0.04181844955384731,0.04449965146183967,-0.07861907094568013
1681158822957453000,6.505453125,0.012638532298803328,0.06260229438543319,-0.0330557357750833
1681158822967511800,6.51551171875,0.0012939853332936764,0.07291793669462203,-0.015240677621215582
1681158822977571000,6.525571044921875,-0.019074629760906098,0.07946516638100147,0.00043429976403713225
1681158822987630800,6.535630859375,-0.05066124283149838,0.06555354540646076,0.040880730312317606
1681158822997689900,6.54568994140625,-0.0993285353668034,0.04977846864759922,0.09089856067374348
1681158823007748900,6.555748779296875,-0.16149010024741292,0.03609948738515377,0.16159209931716323
1681158823017808000,6.565807861328125,-0.18192425485849378,0.03306640329957008,0.22296865129992363
1681158823027867000,6.575866943359375,-0.18656769675016402,0.01591886914372444,0.2634751414723694
1681158823037926000,6.58592578125,-0.18524309708289802,-0.009747487032413482,0.25777313043847677
1681158823047985000,6.59598486328125,-0.17782142264954745,-0.027098434805870056,0.23658333515450358
1681158823058044000,6.6060439453125,-0.16367014770023525,-0.04228782063126564,0.2511889297425747
1681158823068104000,6.61610400390625,-0.1553412952940911,-0.01652151121199131,0.24825901377052068
1681158823078163000,6.626162841796875,-0.17604571821391582,0.009946224474906921,0.17543109344691038
1681158823088222000,6.636221923828125,-0.15606727148108182,-0.003288520151376724,0.11642375481352209
1681158823098281000,6.646281005859375,-0.12084347095191478,-0.02962181580364704,0.12890899624675511
1681158823108340000,6.656340087890625,-0.1310638361930847,-0.030639468413591383,0.1467562031045556
1681158823118399000,6.66639892578125,-0.10494506007432937,-0.008866612544655799,0.1483008021980524
1681158823128458000,6.6764580078125,-0.07260887074545025,0.007055763730406761,0.14533260004222393
1681158823138517000,6.68651708984375,-0.05300912113189697,0.02822831561863422,0.1071412549443543
1681158823148577000,6.696576904296875,-0.03855740193128586,0.005428454789519309,0.0613790362007916
1681158823158635800,6.7066357421875,-0.023826281267404555,-0.01872398969233036,0.06790405405536294
1681158823168695000,6.716695068359375,-0.008995938012748957,-0.0032137013494968414,0.053914983930438753
1681158823178753800,6.72675390625,0.013433482068777083,0.007532733592391014,0.02382876548543572
1681158823188813000,6.73681298828125,0.05314122307896614,-0.006179565417766571,-0.03397635775133967
1681158823198871800,6.746871826171875,0.03460552250035107,-0.0037011926054954527,-0.07612155504152178
1681158823208931000,6.75693115234375,0.01685651532001793,-0.000045592707395553586,-0.07685849101394414
1681158823218989800,6.76698974609375,0.007677256629616022,0.013045359534025192,-0.07407499777525663
1681158823229049900,6.7770498046875,-0.011997750177234411,0.02655307588279247,-0.06704173813760281
1681158823239109000,6.787109130859375,-0.016496888227388262,0.051344987311959266,-0.059478463276475664
1681158823249168000,6.79716796875,-0.008800707701593637,0.055739422878623004,-0.04620367890074849
1681158823259227100,6.80722705078125,-0.023342297142744065,0.05365618686378002,-0.05337941574901342
1681158823269286000,6.817285888671875,-0.020941081219911575,0.06428864003717899,-0.07919073335379362
1681158823279345200,6.82734521484375,-0.015019289955496787,0.06039864686131477,-0.07242576926350593
1681158823289404000,6.83740380859375,-0.024537498276680707,0.05705225904285907,-0.0667467007137835
1681158823299463000,6.847462890625,-0.03168744309656322,0.06059504621624946,-0.04053966178968549
1681158823309523000,6.85752294921875,-0.026614450681209562,0.06053717854917049,-0.002012216605246067
1681158823319582000,6.86758203125,-0.031386487388610836,0.04416998111605644,0.009049421765655279
1681158823329641000,6.877640869140625,-0.0416401703774929,0.046638417056202884,0.031159985156357286
1681158823339700000,6.887699951171875,-0.04208747575357556,0.029541736304759977,0.0570544509999454
1681158823349759000,6.897759033203125,-0.036816695743799206,0.02145370691716671,0.07228095396533608
1681158823359818000,6.90781787109375,-0.038647929758951066,0.023744448202848434,0.0660695321045816
1681158823369876700,6.917876708984375,-0.06738945559673011,0.03482113801240921,0.06437880253866314
1681158823379937000,6.92793701171875,-0.07905717010200024,0.06228139186799526,0.04356543935164809
1681158823389995800,6.937995849609375,-0.03304645649008453,0.03015782237648964,0.016465981632471084
1681158823400055000,6.948054931640625,0.01572436948493123,-0.015327917513251304,0.03754807875826954
1681158823410113800,6.95811376953125,0.026957930356636642,-0.039079379978775974,0.08184154012352228
1681158823420173000,6.968173095703125,0.03551481936499476,0.00044423663616180415,0.08461801909953355
1681158823430231800,6.978231689453125,0.041394525053352116,0.028491350468993187,0.07130816341042519
1681158823440290800,6.988290771484375,0.017597031489014623,0.018733926564455033,0.08657441386431455
1681158823450349800,6.998349853515625,-0.00993994086459279,0.017646715849637985,0.07001490872949362
1681158823460408800,7.008408935546875,-0.012016527942940593,-0.014760931280255317,0.03170271373093128
1681158823470469000,7.01846923828125,0.0023323884703218938,-0.05187339510023593,0.004181377337872982
1681158823480528000,7.02852783203125,-0.01810264292359352,-0.03837561562359333,-0.019715338817238807
1681158823490587000,7.0385869140625,-0.060552376118302345,-0.03595218786895275,-0.031173283029347656
1681158823500646000,7.04864599609375,-0.07579612247943877,-0.010215689066052436,-0.03307020269185305
1681158823510705000,7.058704833984375,-0.06355345763042569,0.007524550285935402,-0.04862725278586149
1681158823520764000,7.068763916015625,-0.03755027071535587,0.01112228251695633,-0.03654328562989831
1681158823530823000,7.078822998046875,0.0068171326689422124,0.008379705810546874,-0.0015963292807340621
1681158823540883000,7.088883056640625,0.008715221375226973,0.04130640837848186,-0.002710428002476692
1681158823550942000,7.09894189453125,0.013716829054802655,0.03887655088305473,-0.07412906605005264
1681158823561000700,7.109000732421875,0.005195230555534363,0.02698503755927086,-0.11090060747787356
1681158823571060000,7.11906005859375,-0.026695699223875997,0.01505319222509861,-0.10909969553574919
1681158823581118700,7.12911865234375,-0.051205871102213855,0.0221773450165987,-0.09581044424325227
1681158823591178000,7.139177978515625,-0.04569397581294179,0.034600188738107676,-0.054470718117058274
1681158823601236700,7.14923681640625,-0.038808673278614876,0.0360720148563385,-0.012448562684655188
1681158823611296000,7.1592958984375,-0.00858604203760624,0.04900397714376449,0.022034867805987596
1681158823621356000,7.16935595703125,0.0009438567213714122,0.04653144955039024,0.0220085643209517
1681158823631414800,7.179414794921875,0.005255290179699659,0.03423720064461231,0.01667363303378224
1681158823641474000,7.18947412109375,-0.007204159225150942,0.037167408877611156,-0.012937369114905594
1681158823651532800,7.19953271484375,0.012046411624550819,0.03697159404456615,-0.034238515818864106
1681158823661592000,7.209592041015625,0.03373107775337994,0.01192132394015789,-0.02936462617218494
1681158823671650800,7.21965087890625,0.03337678442299366,0.015141455030441283,-0.02354249588996172
1681158823681710000,7.2297099609375,0.03685352062284946,0.032685295027494427,-0.02363923426270485
1681158823691768800,7.239768798828125,0.039460488250851626,0.04408756352961063,-0.00013327099084854124
1681158823701828900,7.249828857421875,0.026001287218928335,0.01652794095277786,0.01754676260650158
1681158823711888000,7.259887939453125,0.013632804033160209,0.012039981883764267,0.031137773324549197
1681158823721947000,7.26994677734375,0.011410890199989079,0.023530513191223144,0.040107846243679524
1681158823732006000,7.280005859375,0.00921367241665721,0.027191958308219907,0.06007423721253872
1681158823742065000,7.29006494140625,0.024243629896640775,0.021019991675019264,0.050811464957147834
1681158823752124000,7.3001240234375,0.023380364130809902,0.015016367346048354,0.010378624542802571
1681158823762183000,7.310182861328125,-0.0017500585377216338,-0.0012514613658189773,-0.016824878072738646
1681158823772243000,7.320242919921875,-0.013066986843943595,-0.012422259199619293,-0.02162701765745878
1681158823782302000,7.330302001953125,-0.024687428141385314,-0.011710311537981032,-0.033487551321089264
1681158823792361000,7.34036083984375,-0.03161269735991955,-0.0012245733588933945,-0.010576046811044215
1681158823802420000,7.350419921875,-0.016712065348029135,0.028586627537012098,0.027272330068051815
1681158823812479000,7.36047900390625,0.0073914254255592815,0.03260638457238674,0.039934389372915026
1681158823822538000,7.3705380859375,0.01604220326244831,0.039320787519216534,0.03301905702650547
1681158823832597000,7.380596923828125,0.028005028256773947,0.032572482302784915,0.022662644315510988
1681158823842656000,7.390656005859375,0.03599493103213608,0.03057692457139492,0.006411036086082458
1681158823852716000,7.400716064453125,0.023903584287315607,0.028388474616408345,-0.006363251421600579
1681158823862774800,7.41077490234375,0.015102438194304704,0.024341245052218435,-0.008727642465382815
1681158823872834000,7.420833984375,0.021958149307966232,0.02944236758351326,0.013646686428040265
1681158823882892800,7.430892822265625,0.04265738459601998,0.03553659280538559,0.0210870655618608
1681158823892952000,7.4409521484375,0.06916895942464471,0.025830022305250167,-0.009786649999022482
1681158823903011000,7.451010986328125,0.07701675031557678,0.0015519056171178817,-0.019392098212242127
1681158823913070000,7.461070068359375,0.06476042226739227,-0.008212532550096512,-0.008244096732139586
1681158823923130400,7.47113037109375,0.03799516493864357,0.0017354454904794693,-0.015377163482457398
1681158823933189000,7.481189208984375,0.013016279570013283,0.015933482190966606,-0.03472702998816967
1681158823943248400,7.491248291015625,0.00923500746563077,0.029710078608989714,-0.034170272888243196
1681158823953307100,7.50130712890625,0.021565935119986532,0.030796704801917076,-0.020967092444002626
1681158823963366100,7.5113662109375,0.034656302839517594,0.02945756515264511,-0.04097863772884011
1681158823973425200,7.521425048828125,0.03173325499966741,0.02199380514323711,-0.07021992978230118
1681158823983484200,7.531484130859375,0.013598901763558387,0.011319850915670395,-0.08267258412018418
1681158823993543200,7.541543212890625,0.01575987918972969,-0.0061596916735172265,-0.08628142226710915
1681158824003603200,7.551603271484375,-0.017276713493466378,0.00724924047589302,-0.0777830585129559
1681158824013662200,7.561662109375,-0.017140666023641823,0.03355272551178932,-0.09406652318537234
1681158824023721200,7.57172119140625,-0.015908493880182503,0.03391454456150531,-0.08652531402558088
1681158824033780200,7.5817802734375,-0.0011625409733504056,0.02302081010341644,-0.07690364532992243
1681158824043839200,7.591839111328125,0.00013385551273822782,0.02041150438785553,-0.08074979936406015
1681158824053898000,7.60189794921875,-0.008413608080148696,0.011213467931747436,-0.08387859890908002
1681158824063957200,7.611957275390625,-0.02230418626666069,0.002802197939157486,-0.08304960073903203
1681158824074016000,7.62201611328125,-0.040338293998688456,-0.0009264671951532363,-0.0631923692330718
1681158824084076300,7.632076171875,-0.048262218865752216,-0.005469955843687057,-0.027587679627537727
1681158824094135300,7.64213525390625,-0.03907872239165008,0.017383680999279023,-0.00997457378655672
1681158824104194000,7.652194091796875,-0.025891324038431047,0.04594985027015209,-0.013179215046763419
1681158824114253300,7.66225341796875,-0.025361235749721527,0.05745850175619125,-0.01222396014854312
1681158824124312000,7.67231201171875,-0.008266893085837364,0.06118482880294323,-0.020004677152633665
1681158824134371300,7.682371337890625,-0.008186155999824404,0.039841012001037596,-0.042700200824439524
1681158824144430000,7.69243017578125,-0.03697086339220405,0.007578326299786567,-0.061936377822607754
1681158824154490000,7.702489990234375,-0.056137920676916836,-0.0026648352950811383,-0.0017881985910236835
1681158824164549000,7.712549072265625,-0.07292202834784985,0.008906360033154486,0.025751696372032163
1681158824174608100,7.722608154296875,-0.06431786613166332,0.004084638965129852,0.03956789414808154
1681158824184667100,7.732667236328125,-0.050203416061401364,-0.0013525836527347563,0.05092851546555757
1681158824194726100,7.74272607421875,-0.032158786935359236,-0.009227847072482108,0.03229775701463222
1681158824204785200,7.75278515625,-0.051825391240045426,-0.021809096226096152,-0.005626023188233375
1681158824214844200,7.76284423828125,-0.048584290426969524,-0.011787468427419661,-0.016741291442513465
1681158824224903200,7.772903076171875,-0.03677855569049716,0.013799392771720886,-0.02022781838402152
1681158824234963200,7.782963134765625,-0.027436653784289954,0.009997077879309653,-0.030679946554452178
1681158824245022000,7.79302197265625,-0.027474793837592004,-0.00043254619836807247,-0.03611015490964055
1681158824255081200,7.803081298828125,-0.018209391233697532,0.001294131463766098,-0.015195815566182136
1681158824265140200,7.81314013671875,0.0015267711758613586,0.0035369419544935225,0.01964212745055556
1681158824275199200,7.82319921875,0.00016373919434845447,0.01844108109772205,0.00207549109980464
1681158824285258200,7.83325830078125,-0.009112696260213852,0.03444587495923042,-0.04639321012347936
1681158824295317200,7.843317138671875,0.0043827451288700105,0.025041502276062964,-0.06183554779663682
1681158824305377300,7.853377197265625,-0.0030740006178617474,0.014202712875604628,-0.055229427529871464
1681158824315436000,7.86343603515625,-0.025004019809886813,0.0003559738308191299,-0.0454199811771512
1681158824325495300,7.873495361328125,-0.02317877714410424,0.006316928061842918,-0.04732537640705704
1681158824335554000,7.883553955078125,-0.013384893686696887,0.015064298141002654,-0.04904913145974278
1681158824345613300,7.89361328125,-0.011689195684716104,0.02441957098543644,-0.05806026704162359
1681158824355672000,7.903672119140625,-0.008162117537111043,0.0399105701059103,-0.082124594848603
1681158824365731300,7.9137314453125,-0.020666282866522667,0.040140871730446816,-0.06890650909617543
1681158824375790000,7.9237900390625,-0.03699380587637424,0.03589022854864597,-0.03533800149336457
1681158824385850000,7.93385009765625,-0.040745778821036215,0.03974164327979088,-0.023595395120978354
1681158824395909000,7.9439091796875,-0.03663951254598796,0.017630933758616445,-0.026600422155857086
1681158824405968100,7.953968017578125,-0.007259031217545271,0.023701193583011627,-0.038136838431656356
1681158824416027100,7.964027099609375,-0.0032563714474439617,0.01866787559092045,-0.0590446019038558
1681158824426086100,7.974086181640625,-0.009918094358965754,0.014371055179834365,-0.032243542609363796
1681158824436145200,7.984145263671875,-0.012582345132157205,0.043887072521448134,0.00555544217005372
1681158824446204200,7.9942041015625,-0.009252908448502422,0.0503846178472042,0.0036580841161310673
1681158824456264200,8.00426416015625,-0.009030717065185307,0.052068625411391255,-0.004427607183903456
1681158824466323200,8.0143232421875,-0.0058905924085527655,0.05211772525012493,-0.01998290371224284
1681158824476382200,8.02438232421875,-0.009507394666224718,0.03020166151821613,-0.033142683406174184
1681158824486441200,8.034441162109376,-0.01376256789267063,0.024605448946356773,-0.03590601063966751
1681158824496500200,8.044500244140625,-0.01721935728304088,0.002982230681180954,-0.026344986090064047
1681158824506559200,8.054559326171875,-0.024237200155854222,-0.005746434697508812,-0.028883856917917727
1681158824516618200,8.0646181640625,-0.04311126584336161,0.013819266515970229,-0.027385581184178588
1681158824526677200,8.07467724609375,-0.04510053996443748,0.0046498716324567795,-0.012506576482206582
1681158824536737300,8.0847373046875,-0.030027254799380898,0.015447159978747366,0.03124970926642418
1681158824546796000,8.094796142578126,-0.01727722495011985,0.036577626290917396,0.04312909376099706
1681158824556855300,8.104855224609375,-0.008067498056218028,0.03237082225084305,0.030678339119255542
1681158824566914000,8.1149140625,0.007815788317471742,0.02148760918676853,0.05166311335042119
1681158824576973300,8.124973388671876,0.0036013854928314683,0.012408815196156501,0.057000090464204546
1681158824587032000,8.135031982421875,-0.03111863023266196,0.02509820089936256,0.0009108312346041202
1681158824597091000,8.145091064453124,-0.03891038008742034,0.008524667239189147,-0.04770443885251879
1681158824607151400,8.1551513671875,-0.05304879555515945,-0.04338847534954548,0.010814970133453608
1681158824617210000,8.165210205078125,-0.042395884115621445,-0.013064648756384849,0.08328764727860688
1681158824627269400,8.175269287109375,-0.04181896101050079,0.01778057136237621,0.0903477949231863
1681158824637328100,8.185328125,-0.03614741818010807,0.02294891391098499,0.08435703007578849
1681158824647387400,8.195387451171875,-0.045012131028622386,0.026489362996816635,0.07815817543566227
1681158824657446100,8.205446044921874,-0.060027913852781056,0.011502221745252608,0.09318199543580412
1681158824667505200,8.215505126953126,-0.07386654265634715,0.04992518364191055,0.06215659644454717
1681158824677564200,8.225564208984375,-0.0505763410270214,0.0797206024467945,-0.0014884849920868872
1681158824687624200,8.235624267578125,-0.01267243456840515,0.056633156847953794,-0.012853782484680413
1681158824697683200,8.24568310546875,-0.00743570295870304,0.03890986863076687,0.006009031156450509
1681158824707742200,8.2557421875,-0.02581263277903199,0.035412089642882345,0.03634440205693245
1681158824717801200,8.26580126953125,-0.018622282883524893,0.030856326034665107,0.08116276407912373
1681158824727860200,8.275860107421876,-0.0034011867456138134,0.05013911865353584,0.09950506097748875
1681158824737919000,8.2859189453125,0.00449636157117784,0.06672960344851017,0.07789192571491002
1681158824747978200,8.295978271484374,-0.019501988327503203,0.0379933383077383,0.06892302183955908
1681158824758038300,8.306038330078126,-0.043076852117106317,0.03609130407869816,0.06841711814403534
1681158824768097300,8.31609716796875,-0.05762136416770518,0.05178630133867263,0.02407265724390745
1681158824778156300,8.32615625,-0.026244375259801743,0.022730887246131894,0.019125848491489888
1681158824788215000,8.336215087890626,-0.021233269099518656,0.002022445738315582,0.08040873084142804
1681158824798274300,8.3462744140625,-0.05923537523560225,0.0009118541479110718,0.09269479644075035
1681158824808333000,8.3563330078125,-0.029940891690179702,0.00604103372991085,0.10045870844051241
1681158824818392300,8.366392333984376,-0.005358458293229341,-0.0013256956458091735,0.1085131278194487
1681158824828451000,8.376451171875,-0.024455738277360795,0.0169967275083065,0.1334003163166344
1681158824838511000,8.386510986328124,-0.04280570702552795,0.053119595769047734,0.11022066238969563
1681158824848570000,8.396570068359376,-0.03208959415666759,0.03964110551476478,0.07031710654646157
1681158824858629000,8.406629150390625,-0.02886537141315639,0.01258183367550373,0.06462970855981111
1681158824868688100,8.416688232421874,-0.05110401816293597,0.02297989357113838,0.06867094677463173
1681158824878747100,8.4267470703125,-0.06344860901646315,0.0422504112303257,0.08045783068016171
1681158824888806100,8.43680615234375,-0.028003274691104887,0.07505553324520588,0.05893032787442207
1681158824898865200,8.446865234375,0.00018587796092033385,0.09026479281485081,-0.015106237586587667
1681158824908925200,8.45692529296875,0.015112228935956954,0.060952189090847965,-0.0658089814722538
1681158824918984200,8.466984130859375,-0.0055406829923391335,0.017285481321811676,-0.04652794241905212
1681158824929043200,8.477043212890624,-0.026857611787319182,0.0016869301736354826,-0.030491292114555833
1681158824939102200,8.487102294921876,-0.005818915411829948,0.0021487024664878845,0.0014655425079166888
1681158824949161200,8.4971611328125,0.0002623041979968548,0.027749007669091223,0.0319904446311295
1681158824959220200,8.50722021484375,-0.025002339309453964,0.03105097182393074,0.030224019480496644
1681158824969279200,8.517279296875,-0.0369955594420433,-0.0036801498174667355,0.03726429338082671
1681158824979339000,8.527339111328125,-0.06462583610229194,-0.012907412368059158,0.06641469228044151
1681158824989398300,8.537398193359374,-0.07969539494030177,-0.017284896799921987,0.07647095300108193
1681158824999457000,8.54745703125,-0.06076916067413985,0.005966799449920654,0.12801964619159698
1681158825009516300,8.557516357421875,-0.020390461599826812,0.029234862312674522,0.14414865095466375
1681158825019575000,8.567574951171874,0.01166296526491642,0.04864975687861442,0.1318340899132192
1681158825029634300,8.57763427734375,0.04663081827163696,0.04393383427262306,0.1151195403471589
1681158825039693000,8.587693115234375,0.02178863795995712,0.04989712659120559,0.08396905367150902
1681158825049752300,8.59775244140625,0.002452069327235222,0.0425812506198883,0.07575359851196407
1681158825059812400,8.607812255859375,-0.006512669829651713,0.030274142232537268,0.09981763405799865
1681158825069871000,8.61787109375,0.009945639953017234,0.025436639073491096,0.09831760475859046
1681158825079930400,8.627930419921874,0.008698124109953641,0.019358195942640304,0.06776464558467268
1681158825089989000,8.637989013671875,0.027276275590807197,0.010461772781610488,0.040957887201756235
1681158825100048400,8.64804833984375,0.0010324117876589298,0.014482114338874816,0.02144157808795571
1681158825110107100,8.658107177734376,-0.032492402803897855,0.006959902140498161,0.0005329378329217433
1681158825120166400,8.66816650390625,-0.02775945599786937,0.0055681555211544035,0.01703822856247425
1681158825130226200,8.67822607421875,-0.01438566822707653,0.016424480578303337,0.033086130913347
1681158825140285200,8.68828515625,-0.013308978906273842,0.019616554617881775,0.027674481128156184
1681158825150344200,8.69834423828125,-0.0070615358840674155,0.027310616251826285,0.035525925280898804
1681158825160403200,8.7084033203125,0.0010213058717548846,0.0351046311289072,0.01253390288054943
1681158825170462200,8.718462158203126,-0.0057176469944417475,0.02101706906557083,0.006524287202209234
1681158825180521200,8.728521240234375,-0.012287673034518956,0.02011398274600506,0.006412789651751518
1681158825190580200,8.738580322265625,0.0031646015107631683,0.05129764103889465,0.005156359849870205
1681158825200639200,8.74863916015625,0.010096008209139109,0.050071314114332195,-0.02650339152216911
1681158825210699300,8.75869921875,0.00147540631480515,0.04198737637996673,-0.0421937126070261
1681158825220758300,8.76875830078125,-0.004834507484361529,0.03017477351129055,-0.0355643575951457
1681158825230817300,8.7788173828125,-0.0031563451390713452,0.02555237440764904,-0.0059624155357480045
1681158825240876300,8.788876220703125,-0.006633300534635782,0.0197767136156559,0.003143558722734451
1681158825250935300,8.798935302734375,0.015429478191584347,0.016100655451416968,0.003233575093746185
1681158825260994300,8.808994384765626,0.014261165064573287,0.026735446712374687,0.0034733751989901064
1681158825271053300,8.81905322265625,-0.00930602687522769,0.03942366337180137,0.0042415830925107
1681158825281113000,8.829113037109375,-0.011880407407879828,0.03421265072524547,0.018487988979369402
1681158825291172400,8.83917236328125,-0.014871186721697448,0.030746435919404028,0.02373641102686524
1681158825301231000,8.849231201171875,-0.03345094563774764,0.023751462465524672,0.0036165830619633195
1681158825311290400,8.859290283203125,-0.03600289514288306,0.026028759747743605,0.016315467245876788
1681158825321349000,8.86934912109375,0.012312515214830635,0.030341362249851227,0.043187399819493294
1681158825331408400,8.879408447265625,0.02540514795668423,0.02192249347269535,0.043625206714868546
1681158825341467100,8.889467041015624,-0.020240823996067046,-0.0005067804783582687,0.04787292728722095
1681158825351527200,8.899527099609376,-0.04116254292838275,0.004836918637156486,0.07765738630667328
1681158825361586400,8.90958642578125,-0.01591433909907937,0.019592004698514937,0.09057736589536071
1681158825371645200,8.919645263671875,-0.02907587235867977,0.004678513205051422,0.04659779278486967
1681158825381704400,8.929704345703126,-0.018221300867199898,-0.03250000158846378,0.03714534317627549
1681158825391763200,8.93976318359375,-0.0068732467703521245,-0.04217851503789424,0.058722968734055754
1681158825401822200,8.949822265625,-0.001261909694597125,-0.022176175972819328,0.06657134414687753
1681158825411881200,8.959881103515626,0.01580780998468399,-0.0029576807618141173,0.06606529432088136
1681158825421940200,8.969940185546875,0.03145136931836605,0.018654431587457655,0.04644289448410272
1681158825432000300,8.980000244140625,0.036710897281765936,0.027240473625063894,0.026812749732285736
1681158825442059300,8.990059326171876,0.04851283262595534,0.03892974237501621,0.01853504299148917
1681158825452118300,9.0001181640625,0.052989831909537315,0.03867430630922317,-0.011102408772706985
1681158825462177300,9.01017724609375,0.04930032974183559,0.029138416200876233,-0.04033683269396424
1681158825472236000,9.020236083984376,0.034128041181713344,0.03376841408908367,-0.05044000129625201
1681158825482295300,9.03029541015625,0.021067411013320086,0.029466917502880094,-0.06639730275422334
1681158825492354000,9.04035400390625,-0.013577128323167561,0.0016980360895395277,-0.062097998125106094
1681158825502414300,9.050414306640626,-0.011969108604639768,-0.0018231237739324568,-0.04207666209861636
1681158825512473000,9.06047314453125,-0.0006909048736095428,0.008123100700974464,-0.06310264512300491
1681158825522532400,9.070532470703125,0.011953545709326862,0.012401800933480263,-0.07658084311634301
1681158825532591000,9.080591064453126,0.008622282394766806,0.024642273825407027,-0.05222454662546515
1681158825542650000,9.090650146484375,-0.007767126870155334,0.026613866159319877,-0.04600771793723106
1681158825552709000,9.100709228515624,-0.009185176974534987,0.01829553514719009,-0.05474792762324213
1681158825562768100,9.11076806640625,-0.014762246454507112,0.0249222598105669,-0.05521043056845665
1681158825572828400,9.120828369140625,0.0073632222443819045,0.03470131102502346,-0.0357310924641788
1681158825582887200,9.13088720703125,0.017042320215702057,0.0404243648469448,-0.04414937671944499
1681158825592946200,9.1409462890625,0.04219897330403328,0.040619595158100125,-0.06520692392587661
1681158825603005200,9.151005126953125,0.0645182110093534,0.042052258309721945,-0.07591887207627296
1681158825613064200,9.161064208984374,0.04136953674256801,0.02971417026221752,-0.059271542527526616
1681158825623123200,9.171123291015626,0.01691664800941944,0.011247954723238944,-0.058400897172838445
1681158825633182200,9.18118212890625,0.0010229863721877336,-0.008752046254277229,-0.02823182274997234
1681158825643242200,9.1912421875,0.0025385785669088364,0.029631168153882025,-0.03261792887970805
1681158825653301200,9.20130126953125,0.021830723536014555,0.016079028141498565,-0.05895867718607187
1681158825663360000,9.211360107421875,0.023579174638539552,-0.017542670953273772,-0.06718187726065517
1681158825673419300,9.221419189453124,0.023624621215462684,0.0031149171501398086,-0.027896891707181928
1681158825683478000,9.23147802734375,0.018077508482336996,0.03898468743264675,-0.032955051879584786
1681158825693537300,9.241537353515625,0.02106149272918701,0.027466683596372603,-0.045660073543339966
1681158825703596000,9.251595947265624,0.031275062903389335,-0.006219312906265258,-0.0436640774205327
1681158825713655300,9.2616552734375,0.037656142242625354,-0.002387187397480011,-0.034845980192720886
1681158825723715300,9.27171533203125,0.027863062502816317,0.008085106778144837,-0.04589008290693163
1681158825733774000,9.281774169921874,0.03498012796640396,0.01644610788822174,-0.05454436787515878
1681158825743833300,9.291833251953125,0.044517260183766484,0.010410334855318068,-0.04113222085535526
1681158825753892000,9.30189208984375,0.044433015966415405,0.010133271479606628,-0.0360544791996479
1681158825763951400,9.311951416015624,0.03175006000399589,0.008930909952521323,-0.048668461579084395
1681158825774010000,9.322010009765625,0.013710691574960946,0.004162380376458168,-0.05445172115564346
1681158825784069400,9.3320693359375,0.009250643426179886,0.02543430098593235,-0.022415829947590827
1681158825794129200,9.342129150390624,0.02334646186120808,0.03328209187686443,-0.019287176533043383
1681158825804188200,9.352188232421875,0.021010639324784277,0.03771335232257843,-0.039403497366607185
1681158825814247200,9.3622470703125,0.03632752398736775,0.02989887917935848,-0.04728650570139289
1681158825824306200,9.37230615234375,0.039684433199837804,0.01141454346179962,-0.0372797832109034
1681158825834365200,9.382365234375,0.04034961911030113,0.011897358542680739,-0.04808744682073593
1681158825844424200,9.392424072265625,0.03899703545756638,0.016879238608479497,-0.058596273614466184
1681158825854483200,9.402483154296876,0.02698985986486077,0.024895371803641316,-0.06134381875693798
1681158825864543200,9.412543212890625,-0.005344795094057917,0.03049626055061817,-0.05409881606474518
1681158825874602200,9.422602294921875,-0.0043218817871063945,0.04192658610343933,-0.03580488835275173
1681158825884661200,9.4326611328125,0.004894274847581983,0.031708558949828144,-0.0036500469401478763
1681158825894720300,9.44272021484375,0.010576777463406324,0.031251462832093235,-0.00548705310896039
1681158825904778800,9.45277880859375,0.0209318019349128,0.0208440505862236,-0.018301088105142114
1681158825914837800,9.462837646484376,0.04213526041805744,0.009026187020540238,-0.026505437348783016
1681158825924896800,9.472896728515625,0.02958630609884858,0.012889292189478874,0.011502660136669873
1681158825934956800,9.482956787109375,0.028611250521615145,0.022739655074477193,-0.017468582803756
1681158825945015800,9.493015869140624,0.016726240003854035,0.005493336719274521,-0.0274167069748044
1681158825955074800,9.50307470703125,-0.000671031129360199,-0.014507833302021026,0.009483867660164833
1681158825965133800,9.5131337890625,0.001965235658362508,0.01569149012863636,0.04267228990420699
1681158825975192800,9.52319287109375,0.02442782735712826,0.014138999989628791,0.044424248138070103
1681158825985251800,9.533251953125,0.01913140144944191,-0.0013426467806100845,0.041365883480757475
1681158825995310800,9.543310791015625,0.010936258425563573,0.004592588487267494,0.040736937927454704
1681158826005371000,9.553370849609376,-0.012726210582256316,0.017697569254040715,0.044358635555952784
1681158826015429600,9.5634296875,-0.020998948886990547,0.03204641260206699,0.014752309582382439
1681158826025489000,9.573489013671875,-0.03375497008562088,0.03459434351921081,0.011572948893904686
1681158826035547600,9.583547607421876,-0.029730536875128746,0.03822480897605419,0.04506020795404911
1681158826045607000,9.59360693359375,-0.025322072783112524,0.03803893101513386,0.032449002053588624
1681158826055665700,9.603665771484375,-0.021919132471829653,0.02096563113927841,0.01938625299334526
1681158826065725000,9.613724853515626,-0.03606200491897762,0.0036959319084882733,0.02475873981192708
1681158826075783700,9.62378369140625,-0.03073942165672779,0.01205810206234455,0.012817834388464688
1681158826085843700,9.63384375,-0.02044263017848134,0.009488543835282325,0.03328910613954067
1681158826095903000,9.643903076171876,-0.02301452649310231,0.020723639076948165,0.042266485582292075
1681158826105961700,9.653961669921875,-0.01130699143409729,0.037191374275088306,0.019919336956739423
1681158826116021000,9.66402099609375,-0.006719809774309396,0.03405190720558166,0.026398615973442792
1681158826126079700,9.674079833984376,0.005432546442747116,0.02505436175763607,0.051367783665657044
1681158826136139000,9.684138916015625,0.0010223287850618362,0.017945406535267827,0.056223114742338653
1681158826146197800,9.69419775390625,-0.001414689103513956,0.008093874606490135,0.04459887405261397
1681158826156257800,9.7042578125,-0.023363851387426256,0.0009738134682178497,0.03617956688404083
1681158826166316800,9.71431689453125,-0.03862980958037078,-0.0004611877709627151,0.033086861565709114
1681158826176375800,9.724375732421874,-0.029866292084008452,-0.0008346972584724426,0.027255525063723324
1681158826186434800,9.734434814453126,-0.04508636530861258,0.01238660336434841,0.007881108638644219
1681158826196493800,9.744493896484375,-0.023579466899484394,0.013913959062099456,0.01664484533071518
1681158826206552800,9.754552734375,-0.0063542643975466485,0.022784663259983063,0.016301584850996732
1681158826216611800,9.76461181640625,-0.011050970846414565,0.024487375524640084,0.00012523381486535072
1681158826226671600,9.774671630859375,-0.013832125997543333,0.01002864206135273,0.01889993078112602
1681158826236731000,9.78473095703125,-0.02443571840263903,0.028060557836294173,0.029923867490142583
1681158826246789600,9.79478955078125,-0.015083002841472624,0.058252282482385634,-0.0010271510906517504
1681158826256849000,9.804848876953125,0.008853022410720586,0.04959434425234795,0.002431172669678926
1681158826266907600,9.81490771484375,-0.007758359041810035,0.03947159416675567,-0.008856529542058705
1681158826276967000,9.824966796875,-0.0330219796359539,0.0214192201256752,-0.007058686339855193
1681158826287025700,9.835025634765625,-0.030659342157840726,0.023704700714349745,0.02567863113582134
1681158826297085700,9.845085693359374,-0.02620937701165676,0.04142155919075012,0.03890402341187
1681158826307145000,9.85514501953125,-0.011730769804120062,0.06131634622812271,0.02392535772770643
1681158826317203700,9.86520361328125,-0.021726678639650342,0.04633505019545555,-0.0034745442427694794
1681158826327263000,9.875262939453124,-0.03495616256892681,0.03348667453825473,-0.018315262760967014
1681158826337321700,9.88532177734375,-0.022258593559265134,0.02393500233888626,0.0070192311123013496
1681158826347381000,9.895381103515625,-0.0028752631753683087,0.02437280923426151,0.006169190154224634
1681158826357439700,9.905439697265624,0.013451017725467682,0.01657937887907028,-0.01073532902598381
1681158826367498800,9.915498779296875,-0.0049683629970997565,0.0006564180821180344,0.003504500989615917
1681158826377558800,9.925558837890625,-0.03142565035521984,0.0038432314246892928,0.019619331096857786
1681158826387617800,9.93561767578125,-0.04083060756027698,0.01017243444621563,0.022566782725602388
1681158826397676800,9.9456767578125,-0.023051789763569832,0.019950316616892814,0.03373465794995427
1681158826407735800,9.95573583984375,-0.028680735561251638,0.003618775019049644,0.014688596696406602
1681158826417794800,9.965794921875,-0.018900442237779497,0.0014683189868927,0.019050299037247895
1681158826427853800,9.975853759765625,-0.009089899906516074,0.016211130088567734,0.017719488824903963
1681158826437912600,9.98591259765625,0.02664893747270107,0.04711071074306965,-0.011350684445351361
1681158826447972900,9.995972900390624,0.05261208463832736,0.04898468792140483,-0.041798137418180704
1681158826458031900,10.006031982421876,0.022972294786572454,0.04415010737180709,-0.05764145710766315
1681158826468091000,10.0160908203125,0.0037000235617160797,0.029151860204339027,-0.06208572316542267
1681158826478150000,10.02614990234375,-0.029549262024089692,0.01566051046848297,-0.033008827893435955
1681158826488209000,10.036208984375,-0.047684053651615974,0.019496727630496025,0.021440262913703916
1681158826498268000,10.046267822265625,-0.046591070783138275,0.031124037060141562,0.04627016826570034
1681158826508326700,10.05632666015625,-0.0578260929595679,0.0174281046628952,0.03872457519173622
1681158826518387000,10.066386962890626,-0.03546761922240257,0.021446108132600783,0.031028759992122647
1681158826528445700,10.07644580078125,-0.02944529019296169,0.03242576730847359,0.0034307051010429856
1681158826538505000,10.0865048828125,-0.029511341166496275,0.01752455077469349,-0.008603285433351994
1681158826548563700,10.096563720703125,-0.022441548910737037,0.002116553762555122,0.030073212832957504
1681158826558622700,10.106622802734375,0.0001958878982812166,0.008803484180569648,0.08347776302322744
1681158826568681700,10.116681640625,0.02716105171330273,0.029314357289671897,0.08978300064727664
1681158826578740700,10.12674072265625,0.020437807872891425,0.02362169860601425,0.0683420070812106
1681158826588801000,10.136801025390625,-0.008480170510336756,0.003918634748458862,0.07710925090461969
1681158826598859800,10.14685986328125,-0.011509089877456425,0.010920622465014457,0.10593436337262391
1681158826608918800,10.156918701171875,-0.013297726859897375,0.03194295222759247,0.1055811660207808
1681158826618977800,10.166977783203125,-0.004741057047247886,0.0405289942651987,0.06077507895827293
1681158826629036800,10.177036865234374,0.016424918969720603,0.046159109106659886,0.03915975173860788
1681158826639095800,10.187095703125,0.006472995406389236,0.04074234475493431,0.03929112303331494
1681158826649154800,10.19715478515625,-0.0019844518154859543,0.03245966957807541,0.025921207720041275
1681158826659214800,10.20721484375,0.005294014754891396,0.03688742289245128,-0.024094138423353433
1681158826669273900,10.21727392578125,0.00008015256412327289,0.023629297390580176,-0.07570698289126157
1681158826679332600,10.22733251953125,0.013315408647060394,-0.0008463876962661743,-0.09851064311265945
1681158826689391900,10.237391845703126,-0.009244213685393333,-0.01412730955183506,-0.11453399554416537
1681158826699450600,10.24745068359375,-0.022175006929039953,-0.006592237871885299,-0.06280059343650937
1681158826709510000,10.257510009765625,-0.007722703206539154,0.02636661339998245,-0.05602993025779724
1681158826719568600,10.267568603515626,0.015863339564204215,0.02079085909426212,-0.09291559958457946
1681158826729629000,10.27762890625,0.02588014505729079,0.016980945417284964,-0.09862067935839294
1681158826739688000,10.28768798828125,0.0426541697256267,0.015449498066306114,-0.09647373045757413
1681158826749746700,10.29774658203125,0.03303527750894427,0.013638064730167388,-0.07446443548426032
1681158826759806000,10.307805908203125,0.01476838393434882,-0.002220014137029648,-0.06637509092241525
1681158826769864700,10.31786474609375,0.03224398100078106,-0.016469488763809204,-0.018412001133710144
1681158826779924000,10.327924072265626,0.02645436474867165,-0.0034340661019086837,0.03848945126160979
1681158826789982700,10.337982666015625,0.030856910556554793,0.02856441570520401,0.06190452137961983
1681158826800042000,10.3480419921875,0.017738558851554988,0.0450344889909029,0.0681974840439856
1681158826810101800,10.358101806640626,0.04447086375877261,0.05076864872872829,0.07898059773445129
1681158826820160800,10.368160888671875,0.056033437389135354,0.059278702920675275,0.09122077836543321
1681158826830219800,10.3782197265625,0.04130816194415092,0.048666708013415334,0.10761647124066948
1681158826840278800,10.38827880859375,0.027857728740572928,0.03240413999855518,0.11381225714087485
1681158826850337800,10.398337890625,0.027044658792018887,0.032606969094276426,0.12964534769728778
1681158826860396800,10.408396728515624,0.025084318504482506,0.038517654442787166,0.1334407944574952
1681158826870455800,10.418455810546876,0.025070874501019715,0.04894143330156803,0.14258300907313823
1681158826880515800,10.428515869140625,0.03855864404030144,0.04841302551329136,0.1505988500073552
1681158826890574600,10.43857470703125,0.04987140762805938,0.057471945759654045,0.1627463839188218
1681158826900633900,10.4486337890625,0.03777297355532646,0.06507306841313838,0.15407909333854913
1681158826910692600,10.458692626953125,0.037572482547163964,0.048454526567459105,0.11846432073041796
1681158826920751600,10.468751708984374,0.03570793078429997,0.013582535150647163,0.07344619835242629
1681158826930810600,10.478810546875,0.026029782661050556,0.008771919998526573,0.05709639044553041
1681158826940869600,10.48886962890625,0.02892915736436844,0.035168928536772726,0.039542321315407754
1681158826950929700,10.4989296875,0.03521050265617669,0.03434884432554245,0.007579933734983205
1681158826960988700,10.50898876953125,0.042186113822460174,0.02385258475244045,-0.05135609322786331
1681158826971047700,10.519047607421875,0.030200054083019495,-0.005439560705423355,-0.07391498490795492
1681158826981106700,10.529106689453124,0.010101561167091131,0.0006985036581754684,-0.07230155836194753
1681158826991165700,10.539165771484376,0.014629413855075836,0.01632452733516693,-0.10382219352424144
1681158827001224700,10.549224609375,0.027502412496879694,0.015565233400464057,-0.16566767819300293
1681158827011283700,10.55928369140625,0.03511230297870934,0.003514145600795746,-0.18755422356948256
1681158827021343700,10.56934375,0.02356858017928898,-0.026160277172923088,-0.17374533231705427
1681158827031402500,10.579402587890625,0.0309872589379549,-0.030168343770503998,-0.13271145726963876
1681158827041461800,10.589461669921874,0.038795375405624506,0.001028174003958702,-0.11062222892791032
1681158827051520500,10.5995205078125,0.044885435909032816,-0.009402619117498397,-0.13142375554665922
1681158827061579800,10.609579833984375,0.05790339597947895,-0.00886135184764862,-0.10346826552003621
1681158827071638500,10.619638427734374,0.04683656997680664,0.004401449829339981,-0.0836604261137545
1681158827081697800,10.62969775390625,0.03205342686474323,0.025835283002257344,-0.08103738413378596
1681158827091757800,10.6397578125,0.012473185669258237,0.04744622630774974,-0.05068213948905468
1681158827101816600,10.649816650390624,0.000031637247279286385,0.06188216341733932,0.029182109212130308
1681158827111875800,10.659875732421876,0.015284662893414496,0.061893269333243364,0.09948840210363269
1681158827121934600,10.6699345703125,0.026587124282866716,0.03177753253281116,0.14827289127781987
1681158827131993900,10.679993896484374,0.0030425825662910937,0.019493220499157905,0.1743457824282348
1681158827142052600,10.690052490234375,-0.026710896793007848,0.030364158603549,0.15448884318321943
1681158827152111900,10.70011181640625,-0.03582001285664737,0.02225625547170639,0.13153393792286514
1681158827162171600,10.710171630859374,-0.06948723159357904,0.02598375156223774,0.1404582720041275
1681158827172230700,10.720230712890626,-0.06645838529169559,0.01871054568886757,0.15298282253444193
1681158827182289700,10.73028955078125,-0.023589988293498752,-0.012113047119975089,0.1885050945535302
1681158827192348700,10.7403486328125,-0.024645634826272723,-0.000991933646798134,0.20025895297229288
1681158827202407700,10.75040771484375,-0.029222002831101417,0.015909516793489457,0.16316913937553762
1681158827212466700,10.760466796875,-0.03986073961481452,0.042943654191493985,0.09937427420467138
1681158827222525700,10.770525634765624,-0.07443594004213809,0.030541268736124037,0.0444100734822452
1681158827232585700,10.780585693359376,-0.046722515143081546,0.020134441012144087,0.00828428261205554
1681158827242644700,10.790644775390625,-0.029352278147265314,0.02498421913087368,-0.018738748870044945
1681158827252703700,10.800703857421874,0.0019258534960448742,0.01622515861392021,-0.07752440757676958
1681158827262762800,10.8107626953125,-0.00000526069700717926,0.00189443544447422,-0.1200179799132049
1681158827272821800,10.82082177734375,-0.02778539415672421,0.014462825116515159,-0.12521058012023567
1681158827282880800,10.830880859375,-0.04811433482766151,0.01671615700125694,-0.1057283194065094
1681158827292939800,10.840939697265625,-0.06174085525050759,0.029213819524645804,-0.09714680741354823
1681158827302998800,10.850998779296875,-0.06890475553050637,0.027300094857811926,-0.11525821816548705
1681158827313058600,10.86105859375,-0.051251025418192146,0.018839725026488303,-0.1067829430259764
1681158827323117800,10.871117919921875,-0.04738192889988422,0.011158522874116897,-0.0972566975288093
1681158827333176600,10.881176513671875,-0.037460254344344135,0.02442249359488487,-0.06624167380109429
1681158827343235800,10.89123583984375,-0.03177344087958336,0.03277764948606491,-0.04846446343958378
1681158827353294600,10.901294677734375,-0.019783874008804558,0.028706454524397847,-0.02354790271744132
1681158827363353900,10.911353759765625,-0.006276449920982122,0.04630699314475059,-0.00040478140860795975
1681158827373413600,10.92141357421875,-0.04164820755347609,0.05796528223454952,0.000535129790008068
1681158827383472600,10.93147265625,-0.048713615895062685,0.042590602970123285,0.0039393852755427354
1681158827393531600,10.94153173828125,-0.04030936016514897,0.025468203255534172,0.027660452602803705
1681158827403590700,10.951590576171874,-0.03860708629190922,0.03621872985064983,0.02783639369159937
1681158827413649700,10.961649658203125,-0.0380196417927742,0.008898761248588561,0.01324848089069128
1681158827423708700,10.971708740234375,-0.016370266173034904,-0.017872341299057005,0.03360898574367165
1681158827433767700,10.981767578125,-0.029679537340253588,-0.0018050035953521728,0.059519233678281304
1681158827443826700,10.99182666015625,-0.03196984023451805,0.03172843269407749,0.052866643921285865
1681158827453886700,11.00188671875,-0.00039060675278306006,0.04244681058526039,0.026494185302406548
1681158827463945700,11.01194580078125,0.013439911809563635,0.03898118030130863,-0.0011088380247354507
1681158827474004700,11.022004638671875,-0.019079525131732226,0.0284819981187582,-0.0068124564938247196
1681158827484063700,11.032063720703125,-0.04637143668308854,0.01491115340590477,0.014064035057276486
1681158827494122800,11.042122802734376,-0.04237893298082054,0.001973345899581909,0.0007514028891921043
1681158827504181500,11.052181396484375,-0.04371756117343902,-0.0027519290566444393,-0.019179770635813474
1681158827514240800,11.06224072265625,-0.04556457727961242,-0.0009749825119972228,-0.02687076352983713
1681158827524300500,11.072300537109374,-0.030854426338523623,-0.001423310801386833,-0.006988397582620382
1681158827534359800,11.08235986328125,-0.02348601646237075,0.008299041789770126,0.01647021941617131
1681158827544418600,11.09241845703125,0.0020372049160301683,0.033976503881812094,0.01360270115584135
1681158827554477600,11.1024775390625,0.009843494752794503,0.05548632490038871,0.005627484492957592
1681158827564536600,11.11253662109375,0.0006618249095976353,0.062191375496983524,-0.0004718552954494953
1681158827574595600,11.122595703125,-0.01609992479905486,0.0535784454524517,0.003934709100425243
1681158827584654600,11.132654541015626,-0.019899390147253868,0.029676760861277577,0.0032416122697293756
1681158827594714600,11.142714599609375,-0.02522153501808643,0.005973813712596893,0.0006960194401443004
1681158827604773600,11.152773681640625,-0.025347718681022525,-0.01542611719071865,0.004860007251799106
1681158827614832600,11.16283251953125,-0.042534488868713374,0.007119476616382598,0.01883256463333964
1681158827624891600,11.1728916015625,-0.024570377632975576,0.021042203506827353,0.028858722476661203
1681158827634950700,11.18295068359375,-0.013715952271968125,0.006375380250811576,0.05355228809788823
1681158827645009700,11.193009765625,-0.03642155894637108,0.010810147827863693,0.0560479043059051
1681158827655068700,11.203068603515625,-0.009788549695163965,0.017187866166234016,0.06670899905189871
1681158827665128700,11.213128662109375,-0.0008323591709136962,0.0457359152585268,0.05639160317704081
1681158827675187700,11.223187744140626,0.008833294796943664,0.05150806891918182,0.02365720831081271
1681158827685246700,11.233246826171875,-0.00039937458112835884,0.057062780436873434,-0.017143588633090255
1681158827695305500,11.243305419921874,-0.02410977438390255,0.04422609521746635,-0.024672376702725887
1681158827705364700,11.25336474609375,-0.020314473754167554,0.01683481494486332,0.012518120789527892
1681158827715423500,11.263423583984375,0.00744279028661549,0.015766308930516244,0.01708352900892496
1681158827725482800,11.273482666015624,0.005048588626459241,0.018610592445731163,-0.005967237841337919
1681158827735542800,11.283542724609376,-0.018092706051468847,0.0049742812812328336,0.006849281372874974
1681158827745601500,11.2936015625,-0.01690320400595665,0.026525603353977203,-0.0013840017043054104
1681158827755660800,11.303660888671875,-0.0018154519241303205,0.042964112457633014,-0.011591653594374656
1681158827765719600,11.313719482421876,-0.01157872104756534,0.03232581406533718,-0.01360284728631377
1681158827775778800,11.32377880859375,-0.021010639324784277,0.017131752064824105,-0.014348697217553854
1681158827785837600,11.333837646484374,-0.02245265482664108,-0.0043003275424242015,-0.00444485057964921
1681158827795896800,11.343896728515626,-0.006268997266888618,-0.00704056616127491,0.015363719478994608
1681158827805956600,11.35395654296875,0.014384499183297157,-0.003678396251797676,0.036226036374270916
1681158827816015600,11.364015625,0.029350743777304886,0.013590133935213088,0.029372078826278448
1681158827826074600,11.37407470703125,0.03365450538583099,0.02650514508783817,0.030778876884281634
1681158827836133600,11.384133544921875,0.031409283742308614,0.02981120089590549,0.03307400208413601
1681158827846192600,11.394192626953124,0.05293554443903267,0.03523848664164543,0.027046266227215527
1681158827856251600,11.404251708984376,0.052832668586447834,0.028007366344332693,-0.0037317338742315766
1681158827866310700,11.414310546875,0.03601889642961323,0.030230303090810776,-0.03006853665784001
1681158827876370700,11.42437060546875,0.054175242301821705,0.034411972689628596,-0.04622691364586353
1681158827886429700,11.4344296875,0.06919087899550795,0.016255553752183915,-0.05420607583150267
1681158827896488700,11.44448876953125,0.04974164376854896,0.01839899552166462,-0.059322980453819035
1681158827906548000,11.4545478515625,0.05581716428995132,0.016797405543923376,-0.06069324589371681
1681158827916607000,11.46460693359375,0.05293357167765498,0.005336100330948829,-0.04366378515958786
1681158827926666000,11.474666015625,0.033362171375751495,-0.00812017809152603,-0.042084991535544396
1681158827936725000,11.48472509765625,0.03629398704394698,0.0001613280415534973,-0.022469313700497148
1681158827946785000,11.494784912109376,0.05011756440885365,0.010645897176861763,-0.00908683116659522
1681158827956843800,11.50484375,0.056062663483619685,0.043135961893200875,-0.010281447778642178
1681158827966903000,11.514903076171874,0.06474675906822085,0.05062427182197571,-0.010291676911711692
1681158827976961800,11.5249619140625,0.057254503616690634,0.04995733234584331,-0.012426058591902255
1681158827987021000,11.53502099609375,0.05163381419070065,0.061031099545955654,-0.03344005891755223
1681158827997079800,11.545079833984374,0.041437925803661346,0.04507131386995315,-0.04392798905372619
1681158828007139000,11.55513916015625,0.026770006569102407,0.006428571742773056,-0.04972630006894469
1681158828017197800,11.56519775390625,0.01448160288222134,0.004751578441262245,-0.040751989366114134
1681158828027257900,11.5752578125,0.012013751463964582,0.017851298511028287,-0.024217764803022145
1681158828037317000,11.585317138671876,0.006201777249574661,0.021609774261713028,0.014637889422476291
1681158828047376000,11.5953759765625,0.01027362979836762,0.03722410750091076,0.04868658175766468
1681158828057435100,11.60543505859375,0.014279869765043259,0.05688800839185714,0.05213394573256373
1681158828067494000,11.615493896484375,0.005984919628500938,0.05675766001045703,0.023016572319716214
1681158828077553200,11.62555322265625,-0.009926496861129999,0.045888475471734996,0.010958908648788929
1681158828087612000,11.63561181640625,-0.024634090518951414,0.02083352919220924,0.01848521250039339
1681158828097672000,11.645671875,-0.02439852819740772,-0.006314005452394485,0.042040714002400635
1681158828107731000,11.65573095703125,-0.020002923586964608,0.00914718305170536,0.06454743710383773
1681158828117790000,11.6657900390625,-0.009986556485295296,0.017159224593639374,0.07872063162401319
1681158828127849000,11.675848876953125,-0.0006372749902307987,0.014410218146443367,0.08528641988039017
1681158828137908000,11.685907958984375,-0.03437938559427857,0.022257424515485763,0.07961918789893388
1681158828147967000,11.695967041015624,-0.0395575188845396,0.029220249265432357,0.052704731357842684
1681158828158026000,11.70602587890625,-0.025912439891695976,0.04366261611580848,0.040161037735641
1681158828168085800,11.716085693359375,-0.017865838493034244,0.027394202882051466,0.032268384789675475
1681158828178145000,11.72614501953125,-0.014673837518692015,0.005152560457587242,0.023949469255656
1681158828188203800,11.736203857421875,-0.014557663793116807,0.0008428805649280548,0.024303835651278496
1681158828198263000,11.746262939453125,-0.017865911558270452,0.015946926194429396,0.03419102341532707
1681158828208321800,11.75632177734375,-0.009644172788411379,0.0246259072124958,0.018905922130495308
1681158828218381000,11.766381103515625,0.009443535649776458,0.006112345400452614,0.0065402154237031935
1681158828228439800,11.776439697265625,-0.0036317806310951707,0.018344634985923765,0.014246990408748387
1681158828238499800,11.786499755859374,-0.0038560909062623975,0.029829321074485778,0.019874036510288715
1681158828248559000,11.79655908203125,0.0033399580776691433,0.04603577498793602,0.0333662630289793
1681158828258617900,11.806617919921875,0.021265490868687627,0.047291328006982804,0.041844460777938366
1681158828268677000,11.816677001953124,0.012632102558016776,0.03256079186499119,0.038513855050504205
1681158828278736000,11.82673583984375,0.031221652215719223,0.0319067118704319,0.02251373736411333
1681158828288795000,11.836794921875,0.04727320782840252,0.022416414469480513,-0.003098550537228584
1681158828298854000,11.84685400390625,0.03188800716996193,0.016219313395023346,-0.029314065028727052
1681158828308914000,11.856913818359375,0.015693097563832997,0.020613748961687085,-0.04367912885919213
1681158828318973000,11.866972900390625,0.014710150941088795,0.01838964317142963,-0.033101328482478855
1681158828329032000,11.877031982421874,0.009092311059311032,0.009006313276290893,-0.029140462027490138
1681158828339091000,11.887091064453125,0.0006079758305102586,0.00009410802423954009,0.00045008185505867004
1681158828349150000,11.89714990234375,-0.011406944677233695,0.00544715948998928,0.030834844855219125
1681158828359208700,11.907208740234376,-0.0005266542226076126,0.009775544083118438,0.0372298065893352
1681158828369268000,11.91726806640625,0.031688100683689116,0.030558219870924948,0.027313246600329875
1681158828379328000,11.927327880859375,0.040323242560029025,0.04182195668518543,0.01598521237820387
1681158828389387000,11.937386962890624,0.038512978267669674,0.040323242560029025,-0.0005080956526100635
1681158828399446000,11.947446044921875,0.0670126581735909,0.04343231449127197,0.01258987085148692
1681158828409504800,11.9575048828125,0.07882292295470833,0.021788053438067435,0.008911328469216823
1681158828419564000,11.96756396484375,0.07005151441283523,-0.036822540962696076,0.010727291850000618
1681158828429622800,11.977622802734375,0.03411211296021938,-0.05421382074654102,0.03318608415648341
1681158828439682000,11.98768212890625,0.01979366475045681,-0.016608020451664925,0.04429726075753569
1681158828449741800,11.997741943359374,0.03629457156583667,0.026545477098226546,0.016549129871279
1681158828459800800,12.00780078125,0.02324351294338703,0.05002455236315727,-0.02531286656334996
1681158828469859800,12.01785986328125,0.020278817918896675,0.06479542051553726,-0.0422612248852849
1681158828479918800,12.0279189453125,0.011425649377703666,0.06235270353853702,-0.04147051289901137
1681158828489977900,12.037977783203125,0.017706921604275703,0.039437691897153855,-0.044319326458871364
1681158828500036900,12.048036865234375,0.04535254196412861,0.009203297153115271,-0.04178761602416634
1681158828510096000,12.058095947265626,0.057269555055350065,0.003655599898099899,-0.03127133657634258
1681158828520156000,12.068156005859375,0.06561784281432628,0.004917582657933235,-0.007118015311658382
1681158828530215000,12.07821484375,0.049780806735157966,0.001623217287659645,0.00418473833873868
1681158828540274000,12.08827392578125,0.02542904028892517,0.01733575020432472,0.012055910105258225
1681158828550333000,12.0983330078125,-0.006647109864279627,0.03389642438292503,-0.0026005378872156143
1681158828560392000,12.108391845703125,-0.0167428988777101,0.021950550523400305,0.012359423096477985
1681158828570451000,12.118450927734376,-0.030424875814840196,-0.002613397368788719,0.028596272148191926
1681158828580510000,12.128510009765625,-0.025507804613560437,0.012596446722745895,0.03473682072982192
1681158828590570000,12.138570068359375,0.0029356150604784486,0.02555588153898716,0.06597527794986963
1681158828600628700,12.148628662109376,0.03171864195242524,0.02817921577990055,0.05330401242524385
1681158828610688000,12.15868798828125,0.045195890097692606,0.04203939882814884,0.03891644450202584
1681158828620746800,12.168746826171875,0.02883519547060132,0.03706336398124695,0.013416238673031329
1681158828630806000,12.178805908203126,0.01619308297522366,0.018608254358172416,0.01838379795253277
1681158828640864800,12.18886474609375,0.00483282698392868,0.0378758494079113,0.012965864557027817
1681158828650924000,12.198924072265624,-0.006116363988444209,0.039980128210783006,-0.027613398590683937
1681158828660984000,12.208984130859376,0.000981558383256197,0.018560323563218115,-0.026773732896149156
1681158828671042800,12.219042724609375,-0.023085107511281965,-0.002008417212963104,-0.012724164755642413
1681158828681102000,12.22910205078125,-0.025076719719916582,0.011966332125663757,0.0027495909690856933
1681158828691160800,12.239160888671876,-0.002388356441259384,0.011367197188735008,0.005169949983805417
1681158828701220000,12.24922021484375,-0.017574819657206534,0.0003045359045267105,-0.003563099309056997
1681158828711278800,12.25927880859375,-0.027160394126176834,-0.013527005571126937,-0.007638532054424285
1681158828721338000,12.269338134765626,-0.024769845727831124,0.01410159058868885,-0.003745908530056476
